AccelX_1,AccelY_1,AccelZ_1,GyroX_1,GyroY_1,GyroZ_1,AccelX_2,AccelY_2,AccelZ_2,GyroX_2,GyroY_2,GyroZ_2,AccelX_3,AccelY_3,AccelZ_3,GyroX_3,GyroY_3,GyroZ_3,AccelX_3,AccelY_3,AccelZ_3,GyroX_3,GyroY_3,GyroZ_3
-2.230000019,3.638000011,8.732699394,-0.0276,-0.0458,0.077500001,3.245100021,2.556900024,8.97069931,0.066299997,0.048999999,-0.0133,-3.003299952,9.073900223,-1.519799948,0.178499997,0.260299981,0.261000007,-3.003299952,9.073900223,-1.519799948,0.178499997,0.260299981,0.261000007
-2.217599869,3.641799927,8.731699944,0.0284,-0.080799997,0.0845,3.237499952,2.564599991,8.984099388,-0.0037,-0.021,-0.041299999,-3.00999999,9.067199707,-1.506399989,0.234499991,0.162299991,0.232999995,-3.00999999,9.067199707,-1.506399989,0.234499991,0.162299991,0.232999995
-2.225199938,3.634199858,8.735599518,-0.153599992,-0.0458,0.0495,3.228899956,2.562599897,8.976399422,-0.045699999,-0.021,-0.0133,-3.02339983,9.0625,-1.503600001,0.262499988,-0.061699998,0.289000005,-3.02339983,9.0625,-1.503600001,0.262499988,-0.061699998,0.289000005
-2.220499992,3.629400015,8.736499786,0.0004,-0.0038,0.119499996,3.243199825,2.553099871,8.984099388,0.0243,-0.077,0.014699999,-3.021699905,9.059100151,-1.513799906,0.416500002,-0.271699995,0.407999992,-3.021699905,9.059100151,-1.513799906,0.416500002,-0.271699995,0.407999992
-2.225199938,3.634199858,8.735599518,0.0284,0.052199997,0.133499995,3.24029994,2.556900024,8.991700172,-0.0037,0.035,-0.0973,-3.007400036,9.057899475,-1.518599987,0.346499979,-0.324200004,0.547999978,-3.007400036,9.057899475,-1.518599987,0.346499979,-0.324200004,0.547999978
-2.225199938,3.627499819,8.727000237,-0.111599997,0.0242,0.063500002,3.233700037,2.558799982,8.986999512,0.052299999,0.048999999,0.0427,-2.990599871,9.067500114,-1.520999908,0.311499983,-0.201700002,0.407999992,-2.990599871,9.067500114,-1.520999908,0.311499983,-0.201700002,0.407999992
-2.214699984,3.627499819,8.735599518,0.0004,0.010199999,0.0495,3.235599995,2.551199913,8.982199669,-0.0177,0.118999995,0.0287,-2.969799995,9.065299988,-1.529399991,0.136500001,-0.17369999,0.372999996,-2.969799995,9.065299988,-1.529399991,0.136500001,-0.17369999,0.372999996
-2.216599941,3.6322999,8.728899956,-0.013599999,0.0942,0.133499995,3.23939991,2.547399998,8.986999512,-0.073699996,0.035,-0.0973,-2.981299877,9.068200111,-1.526499987,0.136500001,0.0083,0.246999994,-2.981299877,9.068200111,-1.526499987,0.136500001,0.0083,0.246999994
-2.217599869,3.628399849,8.731699944,-0.111599997,0.052199997,0.133499995,3.230799913,2.552099943,8.994599342,0.0243,0.147,-0.0133,-2.979899883,9.060299873,-1.519799948,0.188999996,0.0083,0.163000003,-2.979899883,9.060299873,-1.519799948,0.188999996,0.0083,0.163000003
-2.216599941,3.639899969,8.736499786,-0.0276,0.206199989,0.077500001,3.238399982,2.551199913,8.983099937,0.122299999,0.048999999,-0.069299996,-2.997799873,9.067500114,-1.517399907,0.24149999,-0.096699998,0.163000003,-2.997799873,9.067500114,-1.517399907,0.24149999,-0.096699998,0.163000003
-2.227099895,3.6322999,8.73939991,-0.0416,0.164199993,0.0495,3.235599995,2.553099871,8.986000061,0.066299997,0.021,-0.0133,-2.997799873,9.056699753,-1.522199988,0.171499997,-0.236699998,0.145499989,-2.997799873,9.056699753,-1.522199988,0.171499997,-0.236699998,0.145499989
-2.223599911,3.626299858,8.743700027,0.045899998,0.216699988,0.0495,3.235599995,2.543499947,8.98029995,-0.0317,-0.021,0.0427,-2.977499962,9.061499596,-1.519799948,0.262499988,-0.229699999,0.037,-2.977499962,9.061499596,-1.519799948,0.262499988,-0.229699999,0.037
-2.231899977,3.626299858,8.738900185,0.080899999,0.129199997,0.119499996,3.242300034,2.56069994,8.993599892,0.0243,-0.021,0.0007,-2.977499962,9.069199562,-1.52459991,0.206499994,-0.201700002,-0.005,-2.977499962,9.069199562,-1.52459991,0.206499994,-0.201700002,-0.005
-2.227099895,3.631099939,8.742499352,0.133399993,0.164199993,0.0495,3.237499952,2.554999828,8.9897995,0.0383,-0.021,-0.0133,-2.985899925,9.062699318,-1.52459991,0.276499987,-0.149199992,0.023,-2.985899925,9.062699318,-1.52459991,0.276499987,-0.149199992,0.023
-2.233099937,3.627499819,8.737699509,-0.0416,0.164199993,0.067000002,3.241299868,2.561699867,8.984999657,0.052299999,-0.048999999,-0.111299999,-2.98939991,9.063899994,-1.528199911,0.101499997,-0.096699998,-0.116999999,-2.98939991,9.063899994,-1.528199911,0.101499997,-0.096699998,-0.116999999
-2.235499859,3.634599924,8.729299545,0.045899998,-0.098299995,0.0145,3.237999916,2.558099985,8.991000175,0.153799996,-0.021,-0.048299998,-2.994699955,9.060599327,-1.522699952,0.108499996,-0.159699991,-0.060999997,-2.994699955,9.060599327,-1.522699952,0.108499996,-0.159699991,-0.060999997
-2.231899977,3.623899937,8.732899666,0.098399997,-0.343299985,-0.020499999,3.237999916,2.547399998,8.9897995,0.118799999,-0.0035,0.091699995,-3.000399828,9.066299438,-1.526499987,0.136500001,-0.159699991,-0.116999999,-3.000399828,9.066299438,-1.526499987,0.136500001,-0.159699991,-0.116999999
-2.220000029,3.638199806,8.737699509,0.0634,-0.325800002,-0.020499999,3.245100021,2.556900024,8.992199898,0.20629999,-0.0735,-0.0133,-2.996599913,9.065099716,-1.512599945,0.118999995,-0.289199978,-0.134499997,-2.996599913,9.065099716,-1.512599945,0.118999995,-0.289199978,-0.134499997
-2.22239995,3.623899937,8.727000237,-0.0416,-0.255799979,0.031999998,3.235599995,2.560499907,8.987400055,0.048799999,-0.090999998,-0.0133,-2.993000031,9.059100151,-1.514999986,0.136500001,-0.324200004,-0.186999992,-2.993000031,9.059100151,-1.514999986,0.136500001,-0.324200004,-0.186999992
-2.221199989,3.634599924,8.737699509,-0.0241,-0.080799997,0.0495,3.239199877,2.561699867,8.986199379,0.083799995,-0.021,0.109200001,-2.997799873,9.061499596,-1.512599945,0.048999999,-0.46419999,-0.134499997,-2.997799873,9.061499596,-1.512599945,0.048999999,-0.46419999,-0.134499997
-2.218799829,3.623899937,8.732899666,0.045899998,-0.0458,0.0495,3.235599995,2.553299904,8.9897995,0.118799999,-0.090999998,0.109200001,-2.99090004,9.0625,-1.522699952,-0.031500001,-0.355699986,-0.270999998,-2.99090004,9.0625,-1.522699952,-0.031500001,-0.355699986,-0.270999998
-2.217599869,3.625099897,8.731699944,-0.0416,0.0942,0.031999998,3.234400034,2.554499865,8.987400055,0.136299998,-0.090999998,-0.048299998,-2.99090004,9.059599876,-1.509299994,0.0105,-0.229699999,-0.326999992,-2.99090004,9.059599876,-1.509299994,0.0105,-0.229699999,-0.326999992
-2.218799829,3.633399963,8.735300064,0.0634,0.0942,-0.055499997,3.236799955,2.565299988,8.987400055,0.048799999,-0.160999998,0.056699999,-3.004999876,9.061499596,-1.511399984,0.136500001,-0.201700002,-0.256999999,-3.004999876,9.061499596,-1.511399984,0.136500001,-0.201700002,-0.256999999
-2.220000029,3.636999846,8.736499786,0.0284,0.164199993,-0.020499999,3.237999916,2.564100027,8.98029995,0.101300001,-0.055999998,0.021699999,-2.997799873,9.059100151,-1.505499959,0.171499997,-0.271699995,-0.291999996,-2.997799873,9.059100151,-1.505499959,0.171499997,-0.271699995,-0.291999996
-2.223599911,3.635799885,8.732899666,0.098399997,0.164199993,-0.020499999,3.243899822,2.565299988,8.99339962,-0.0037,-0.090999998,0.0392,-2.991799831,9.064399719,-1.511199951,0.136500001,-0.229699999,-0.243000001,-2.991799831,9.064399719,-1.511199951,0.136500001,-0.229699999,-0.243000001
-2.227099895,3.634599924,8.734099388,0.080899999,0.234200001,-0.020499999,3.248699903,2.559299946,8.987400055,-0.021199999,-0.0735,0.056699999,-2.994699955,9.067199707,-1.528399944,0.234499991,-0.313699991,-0.20099999,-2.994699955,9.067199707,-1.528399944,0.234499991,-0.313699991,-0.20099999
-2.216399908,3.635799885,8.727000237,0.0284,0.234200001,-0.020499999,3.24029994,2.565299988,8.98029995,0.118799999,0.014,-0.0133,-2.994199991,9.060299873,-1.52699995,0.136500001,-0.2192,-0.326999992,-2.994199991,9.060299873,-1.52699995,0.136500001,-0.2192,-0.326999992
-2.227099895,3.638199806,8.734099388,0.0284,0.164199993,0.0495,3.248699903,2.554499865,8.983799934,0.066299997,-0.021,0.056699999,-2.986999989,9.065099716,-1.519799948,0.206499994,-0.2192,-0.291999996,-2.986999989,9.065099716,-1.519799948,0.206499994,-0.2192,-0.291999996
-2.224799871,3.627499819,8.736499786,-0.094099998,0.111699998,-0.020499999,3.243899822,2.561699867,8.992199898,0.048799999,-0.021,-0.048299998,-2.98939991,9.060299873,-1.52459991,0.118999995,-0.184199989,-0.326999992,-2.98939991,9.060299873,-1.52459991,0.118999995,-0.184199989,-0.326999992
-2.234299898,3.6322999,8.734099388,-0.0416,0.181699991,0.0495,3.241499901,2.559299946,8.995800018,0.066299997,0.014,0.0042,-2.992799997,9.058599472,-1.516899943,0.136500001,-0.103699997,-0.424999982,-2.992799997,9.058599472,-1.516899943,0.136500001,-0.103699997,-0.424999982
-2.226199865,3.63319993,8.733699799,0.0284,0.234200001,-0.0065,3.248699903,2.561699867,8.992199898,0.0138,-0.021,0.091699995,-3.001399994,9.066299438,-1.515999913,0.066500001,-0.061699998,-0.480999976,-3.001399994,9.066299438,-1.515999913,0.066500001,-0.061699998,-0.480999976
-2.226199865,3.6322999,8.727000237,0.084399998,0.122199997,0.0495,3.237999916,2.555699825,8.992199898,-0.0037,0.031500001,0.0392,-3.010900021,9.066299438,-1.513799906,0.066500001,-0.096699998,-0.466999978,-3.010900021,9.066299438,-1.513799906,0.066500001,-0.096699998,-0.466999978
-2.221400023,3.628399849,8.732699394,0.098399997,0.122199997,-0.034499999,3.235599995,2.554499865,8.975500107,-0.056199998,0.101499997,0.056699999,-3.004999876,9.060299873,-1.510299921,0.101499997,-0.131699994,-0.466999978,-3.004999876,9.060299873,-1.510299921,0.101499997,-0.131699994,-0.466999978
-2.226199865,3.635099888,8.732699394,-0.013599999,0.178199992,-0.0065,3.243899822,2.552099943,8.992199898,-0.0037,0.014,0.056699999,-3.003799915,9.057899475,-1.505499959,0.066500001,-0.184199989,-0.466999978,-3.003799915,9.057899475,-1.505499959,0.066500001,-0.184199989,-0.466999978
-2.227099895,3.640899897,8.735599518,0.0284,0.19219999,-0.020499999,3.228399992,2.558099985,8.994599342,-0.091199994,-0.055999998,-0.0133,-3.002300024,9.071100235,-1.512199998,0.080499999,-0.159699991,-0.606999993,-3.002300024,9.071100235,-1.512199998,0.080499999,-0.159699991,-0.606999993
-2.225199938,3.631299973,8.729800224,0.0284,0.234200001,0.0075,3.241499901,2.553299904,8.983799934,-0.0037,0.031500001,0.074199997,-3.008999825,9.071100235,-1.514099956,0.066500001,-0.229699999,-0.438999981,-3.008999825,9.071100235,-1.514099956,0.066500001,-0.229699999,-0.438999981
-2.217599869,3.628399849,8.727000237,0.0284,0.248199999,-0.020499999,3.24029994,2.552099943,8.984999657,-0.0037,0.048999999,0.056699999,-3.006199837,9.072299957,-1.50909996,-0.0035,-0.131699994,-0.484499991,-3.006199837,9.072299957,-1.50909996,-0.0035,-0.131699994,-0.484499991
-2.225199938,3.626499891,8.725999832,0.0004,0.332199991,-0.034499999,3.248699903,2.554499865,8.986199379,0.066299997,0.048999999,0.056699999,-3.004999876,9.062699318,-1.52579999,0.118999995,-0.131699994,-0.466999978,-3.004999876,9.062699318,-1.52579999,0.118999995,-0.131699994,-0.466999978
-2.229099989,3.636999846,8.735599518,0.16839999,0.206199989,-0.090499997,3.233199835,2.554499865,8.992199898,0.066299997,-0.021,0.056699999,-3.000399828,9.071100235,-1.514999986,0.1505,0.022299999,-0.523000002,-3.000399828,9.071100235,-1.514999986,0.1505,0.022299999,-0.523000002
-2.231899977,3.630299807,8.734600067,-0.013599999,0.360199988,-0.076499999,3.24029994,2.560499907,8.984999657,-0.073699996,-0.021,0.021699999,-3.001399994,9.063399315,-1.519799948,0.0385,0.134299994,-0.537,-3.001399994,9.063399315,-1.519799948,0.0385,0.134299994,-0.537
-2.227099895,3.636099815,8.720299721,0.0144,0.374199986,-0.048499998,3.241499901,2.562899828,8.981499672,-0.021199999,-0.090999998,0.021699999,-3.004999876,9.071100235,-1.512599945,0.083999999,0.148299992,-0.606999993,-3.004999876,9.071100235,-1.512599945,0.083999999,0.148299992,-0.606999993
-2.231899977,3.636999846,8.723099709,-0.0276,0.19219999,-0.034499999,3.236799955,2.555699825,8.991000175,-0.073699996,0.014,0.056699999,-3.001399994,9.047200203,-1.518599987,0.066500001,0.253299981,-0.58950001,-3.001399994,9.047200203,-1.518599987,0.066500001,0.253299981,-0.58950001
-2.231899977,3.636099815,8.737500191,0.056399997,0.164199993,-0.034499999,3.237999916,2.552099943,8.9897995,-0.038699999,0.048999999,0.0042,-3.019299984,9.03880024,-1.505499959,0.153999999,0.200800002,-0.484499991,-3.019299984,9.03880024,-1.505499959,0.153999999,0.200800002,-0.484499991
-2.235699892,3.635099888,8.716400146,0.0004,0.038199998,-0.090499997,3.234400034,2.561699867,8.984999657,-0.073699996,0.048999999,0.109200001,-3.015699863,9.054800034,-1.505499959,0.276499987,0.0083,-0.523000002,-3.015699863,9.054800034,-1.505499959,0.276499987,0.0083,-0.523000002
-2.226199865,3.638899803,8.728899956,-0.0276,-0.14379999,-0.188500002,3.236799955,2.547399998,8.984999657,0.118799999,-0.090999998,-0.0133,-3.00999999,9.056699753,-1.507399917,0.318499982,-0.0337,-0.537,-3.00999999,9.056699753,-1.507399917,0.318499982,-0.0337,-0.537
-2.239099979,3.640599966,8.725799561,0.220899999,-0.430799991,-0.142999992,3.235599995,2.559299946,8.981499672,-0.073699996,-0.021,-0.0133,-3.009699821,9.060299873,-1.516199946,0.276499987,0.0083,-0.606999993,-3.009699821,9.060299873,-1.516199946,0.276499987,0.0083,-0.606999993
-2.227099895,3.6322999,8.740099907,0.080899999,-0.325800002,-0.107999995,3.24029994,2.556900024,8.982699394,0.0138,-0.0385,0.0042,-3.019299984,9.056699753,-1.519799948,0.294,-0.061699998,-0.659500003,-3.019299984,9.056699753,-1.519799948,0.294,-0.061699998,-0.659500003
-2.227099895,3.629899979,8.736499786,0.0634,-0.185800001,-0.090499997,3.249899864,2.555699825,8.986199379,0.048799999,-0.160999998,-0.0133,-3.012099981,9.05079937,-1.519799948,0.276499987,0.043299999,-0.64199996,-3.012099981,9.05079937,-1.519799948,0.276499987,0.043299999,-0.64199996
-2.231899977,3.626299858,8.734099388,0.045899998,-0.255799979,-0.090499997,3.241499901,2.556900024,8.986199379,0.031300001,-0.0385,0.056699999,-3.004299879,9.058599472,-1.532199979,0.276499987,0.106299996,-0.746999979,-3.004299879,9.058599472,-1.532199979,0.276499987,0.106299996,-0.746999979
-2.227099895,3.634599924,8.732899666,0.098399997,-0.115800001,-0.107999995,3.245100021,2.553299904,8.984999657,0.031300001,-0.126000002,0.056699999,-3.021499872,9.057700157,-1.535099983,0.136500001,0.260299981,-0.746999979,-3.021499872,9.057700157,-1.535099983,0.136500001,0.260299981,-0.746999979
-2.230700016,3.6322999,8.731699944,0.115899995,-0.0458,-0.090499997,3.235599995,2.554499865,8.986199379,0.136299998,-0.0735,0.021699999,-3.030099869,9.054299355,-1.513799906,0.188999996,0.340799987,-0.816999972,-3.030099869,9.054299355,-1.513799906,0.188999996,0.340799987,-0.816999972
-2.224799871,3.642999887,8.742499352,0.115899995,0.0242,-0.090499997,3.230799913,2.549700022,8.988599777,0.136299998,-0.0735,0.056699999,-3.036000013,9.054299355,-1.517399907,0.153999999,0.288300008,-0.782000005,-3.036000013,9.054299355,-1.517399907,0.153999999,0.288300008,-0.782000005
-2.233099937,3.634599924,8.736499786,0.0284,0.0242,-0.037999999,3.24029994,2.555699825,8.994599342,-0.0037,-0.0035,0.056699999,-3.025300026,9.056699753,-1.514999986,0.206499994,0.092299998,-0.774999976,-3.025300026,9.056699753,-1.514999986,0.206499994,0.092299998,-0.774999976
-2.230700016,3.635799885,8.734099388,-0.0416,0.0942,-0.020499999,3.239199877,2.558099985,8.982699394,-0.021199999,0.048999999,0.056699999,-3.032899857,9.059599876,-1.518899918,0.402500004,-0.0057,-0.816999972,-3.032899857,9.059599876,-1.518899918,0.402500004,-0.0057,-0.816999972
-2.24029994,3.629899979,8.740099907,0.0284,0.0592,-0.090499997,3.242699862,2.560499907,8.988599777,0.0138,0.048999999,0.056699999,-3.024099827,9.061499596,-1.529399991,0.276499987,-0.044199999,-0.764499962,-3.024099827,9.061499596,-1.529399991,0.276499987,-0.044199999,-0.764499962
-2.230700016,3.625099897,8.731699944,0.0284,0.146699995,-0.055499997,3.234400034,2.558099985,8.981499672,-0.0037,0.048999999,-0.0133,-3.030099869,9.05189991,-1.537699938,0.259000003,-0.096699998,-0.816999972,-3.030099869,9.05189991,-1.537699938,0.259000003,-0.096699998,-0.816999972
-2.242699862,3.633399963,8.727000237,0.098399997,0.216699988,-0.037999999,3.237999916,2.555699825,8.992199898,-0.056199998,0.048999999,0.0392,-3.039599895,9.05079937,-1.537699938,0.276499987,0.0083,-0.746999979,-3.039599895,9.05079937,-1.537699938,0.276499987,0.0083,-0.746999979
-2.231899977,3.633399963,8.732899666,-0.0416,0.0942,-0.020499999,3.234400034,2.554499865,8.995800018,-0.0037,-0.055999998,0.074199997,-3.030999899,9.049099922,-1.544699907,0.178499997,0.0083,-0.746999979,-3.030999899,9.049099922,-1.544699907,0.178499997,0.0083,-0.746999979
-2.224799871,3.636999846,8.730500221,0.0109,0.111699998,-0.020499999,3.236799955,2.554499865,8.982699394,-0.073699996,-0.021,-0.0133,-3.05009985,9.055799484,-1.545599937,0.136500001,0.204300001,-0.676999986,-3.05009985,9.055799484,-1.545599937,0.136500001,0.204300001,-0.676999986
-2.235499859,3.629899979,8.718599319,-0.111599997,-0.098299995,-0.020499999,3.234400034,2.556900024,8.988599777,-0.073699996,-0.108499996,-0.065799996,-3.059899807,9.044799805,-1.52699995,0.066500001,0.235799998,-0.58950001,-3.059899807,9.044799805,-1.52699995,0.066500001,0.235799998,-0.58950001
-2.242699862,3.6322999,8.723400116,0.045899998,-0.290800005,-0.020499999,3.237999916,2.560499907,8.991000175,-0.073699996,-0.090999998,-0.0133,-3.07069993,9.044799805,-1.531799912,0.276499987,0.095799997,-0.501999974,-3.07069993,9.044799805,-1.531799912,0.276499987,0.095799997,-0.501999974
-2.223599911,3.629899979,8.720999718,0.0634,-0.290800005,0.0495,3.241499901,2.561699867,8.99339962,0.066299997,-0.055999998,0.0392,-3.04919982,9.044300079,-1.52459991,0.192499995,0.0363,-0.354999989,-3.04919982,9.044300079,-1.52459991,0.192499995,0.0363,-0.354999989
-2.225899935,3.629899979,8.729299545,0.0284,-0.255799979,-0.020499999,3.235599995,2.554499865,8.986199379,0.0138,0.031500001,-0.065799996,-3.041499853,9.05189991,-1.511199951,0.276499987,0.0363,-0.270999998,-3.041499853,9.05189991,-1.511199951,0.276499987,0.0363,-0.270999998
-2.228299856,3.635799885,8.729299545,0.0284,-0.010799999,-0.055499997,3.239199877,2.560499907,8.995800018,0.031300001,-0.0385,-0.0133,-3.044399977,9.05189991,-1.5079,0.346499979,-0.114199996,-0.344500005,-3.044399977,9.05189991,-1.5079,0.346499979,-0.114199996,-0.344500005
-2.224299908,3.640899897,8.728899956,-0.055599999,-0.059799999,-0.076499999,3.247499943,2.556900024,8.977899551,-0.021199999,-0.021,0.0042,-3.050400019,9.045999527,-1.50669992,0.416500002,-0.271699995,-0.309499979,-3.050400019,9.045999527,-1.50669992,0.416500002,-0.271699995,-0.309499979
-2.230000019,3.622699976,8.727000237,-0.055599999,0.038199998,-0.0625,3.235599995,2.561699867,8.979100227,-0.126199991,0.083999999,-0.0133,-3.050400019,9.047200203,-1.523399949,0.538999975,-0.359200001,-0.274499983,-3.050400019,9.047200203,-1.523399949,0.538999975,-0.359200001,-0.274499983
-2.231899977,3.643699884,8.730799675,-0.013599999,0.0242,-0.0625,3.243899822,2.552099943,8.969499588,-0.0037,0.083999999,0.021699999,-3.037699938,9.057700157,-1.527499914,0.444499999,-0.397699982,-0.20099999,-3.037699938,9.057700157,-1.527499914,0.444499999,-0.397699982,-0.20099999
-2.232899904,3.627499819,8.736499786,-0.111599997,0.066199996,0.035499997,3.236799955,2.550899982,8.983799934,-0.056199998,0.031500001,-0.0133,-3.03579998,9.048099518,-1.536999941,0.402500004,-0.341699988,-0.256999999,-3.03579998,9.048099518,-1.536999941,0.402500004,-0.341699988,-0.256999999
-2.228100061,3.638899803,8.738399506,0.084399998,-0.0038,-0.0625,3.239199877,2.553299904,8.982699394,-0.0037,0.048999999,-0.0133,-3.040799856,9.049599648,-1.556800008,0.398999989,-0.306699991,-0.256999999,-3.040799856,9.049599648,-1.556800008,0.398999989,-0.306699991,-0.256999999
-2.235699892,3.619799852,8.713600159,-0.0416,0.0942,0.077500001,3.249899864,2.553299904,8.984999657,-0.038699999,0.031500001,0.056699999,-3.026499987,9.056699753,-1.548499942,0.346499979,-0.131699994,-0.326999992,-3.026499987,9.056699753,-1.548499942,0.346499979,-0.131699994,-0.326999992
-2.224299908,3.638000011,8.725999832,-0.111599997,0.150199994,0.0495,3.252300024,2.550899982,8.986199379,0.031300001,-0.0035,-0.0133,-3.036000013,9.056699753,-1.554499984,0.259000003,0.060799997,-0.379500002,-3.036000013,9.056699753,-1.554499984,0.259000003,0.060799997,-0.379500002
-2.229099989,3.629400015,8.730799675,-0.0416,0.0942,0.105499998,3.235599995,2.555699825,8.977899551,-0.056199998,-0.055999998,0.021699999,-3.045399904,9.046199799,-1.559000015,0.066500001,0.022299999,-0.368999988,-3.045399904,9.046199799,-1.559000015,0.066500001,0.022299999,-0.368999988
-2.232899904,3.625599861,8.736499786,-0.013599999,0.122199997,0.021499999,3.24029994,2.553299904,8.984999657,-0.073699996,-0.021,-0.0133,-3.051999807,9.042399406,-1.533199906,0.164499998,0.148299992,-0.326999992,-3.051999807,9.042399406,-1.533199906,0.164499998,0.148299992,-0.326999992
-2.230999947,3.634199858,8.733699799,-0.111599997,0.164199993,0.0075,3.235599995,2.556900024,8.983799934,-0.021199999,-0.0385,-0.0133,-3.040799856,9.049599648,-1.52699995,0.206499994,0.200800002,-0.256999999,-3.040799856,9.049599648,-1.52699995,0.206499994,0.200800002,-0.256999999
-2.234799862,3.638000011,8.729800224,0.0004,0.206199989,-0.020499999,3.241499901,2.555699825,8.9897995,-0.1087,0.083999999,0.056699999,-3.045599937,9.043600082,-1.516199946,0.206499994,0.078299999,-0.326999992,-3.045599937,9.043600082,-1.516199946,0.206499994,0.078299999,-0.326999992
-2.242399931,3.640899897,8.72219944,0.0284,0.164199993,0.0495,3.233199835,2.558099985,8.995800018,-0.021199999,0.048999999,0.0042,-3.032899857,9.05189991,-1.515999913,0.108499996,0.106299996,-0.228999987,-3.032899857,9.05189991,-1.515999913,0.108499996,0.106299996,-0.228999987
-2.231899977,3.630299807,8.723099709,0.140399992,0.164199993,0.0495,3.246299982,2.556900024,8.984999657,0.0138,-0.021,0.056699999,-3.044399977,9.05189991,-1.52459991,0.276499987,0.078299999,-0.326999992,-3.044399977,9.05189991,-1.52459991,0.276499987,0.078299999,-0.326999992
-2.239599943,3.636999846,8.735599518,0.0004,0.164199993,-0.048499998,3.239199877,2.547399998,8.988599777,-0.073699996,-0.0035,0.091699995,-3.05279994,9.053099632,-1.530599952,0.328999996,-0.0092,-0.274499983,-3.05279994,9.053099632,-1.530599952,0.328999996,-0.0092,-0.274499983
-2.237699986,3.623600006,8.720299721,-0.0276,0.164199993,0.0495,3.247499943,2.560499907,8.98029995,-0.056199998,0.031500001,0.074199997,-3.056299925,9.041199684,-1.535300016,0.206499994,-0.236699998,-0.274499983,-3.056299925,9.041199684,-1.535300016,0.206499994,-0.236699998,-0.274499983
-2.227099895,3.6322999,8.724999428,0.126399994,-0.353799999,-0.076499999,3.249899864,2.561699867,8.984999657,0.066299997,-0.021,-0.0133,-3.055199862,9.047200203,-1.540099978,0.188999996,-0.271699995,-0.326999992,-3.055199862,9.047200203,-1.540099978,0.188999996,-0.271699995,-0.326999992
-2.225899935,3.636999846,8.730500221,0.045899998,-0.185800001,-0.020499999,3.248699903,2.552099943,8.986199379,-0.073699996,0.014,-0.0308,-3.042500019,9.04529953,-1.540799975,0.164499998,-0.17369999,-0.116999999,-3.042500019,9.04529953,-1.540799975,0.164499998,-0.17369999,-0.116999999
-2.228299856,3.6322999,8.729299545,0.203400001,-0.220799997,-0.090499997,3.241499901,2.552099943,8.987400055,0.048799999,-0.090999998,-0.0133,-3.029099941,9.05189991,-1.546599984,0.066500001,0.190299988,-0.186999992,-3.029099941,9.05189991,-1.546599984,0.066500001,0.190299988,-0.186999992
-2.228299856,3.629899979,8.72219944,0.045899998,-0.185800001,-0.003,3.245100021,2.547399998,8.974299431,0.0138,-0.021,-0.0133,-3.047999859,9.055500031,-1.528199911,0.136500001,0.323300004,-0.326999992,-3.047999859,9.055500031,-1.528199911,0.136500001,0.323300004,-0.326999992
-2.239099979,3.627499819,8.730500221,0.0284,0.0242,-0.003,3.247499943,2.554499865,8.98029995,0.066299997,-0.055999998,0.056699999,-3.059899807,9.043600082,-1.529399991,-0.021,0.41079998,-0.239500001,-3.059899807,9.043600082,-1.529399991,-0.021,0.41079998,-0.239500001
-2.237900019,3.629899979,8.729299545,0.045899998,0.0242,-0.020499999,3.246299982,2.554499865,8.973099709,0.066299997,-0.0385,-0.0133,-3.061100006,9.047200203,-1.52699995,0.083999999,0.428299993,-0.169499993,-3.061100006,9.047200203,-1.52699995,0.083999999,0.428299993,-0.169499993
-2.246299982,3.6322999,8.730500221,0.16839999,0.076699995,-0.072999999,3.230799913,2.556900024,8.98029995,-0.0037,0.014,0.056699999,-3.062599897,9.033800125,-1.52459991,0.0385,0.3583,-0.186999992,-3.062599897,9.033800125,-1.52459991,0.0385,0.3583,-0.186999992
-2.234299898,3.631099939,8.725799561,0.16839999,-0.0458,0.0145,3.245100021,2.549700022,8.984999657,0.031300001,0.031500001,0.056699999,-3.076699972,9.035200119,-1.514999986,0.171499997,0.270799994,-0.151999995,-3.076699972,9.035200119,-1.514999986,0.171499997,0.270799994,-0.151999995
-2.235499859,3.626299858,8.731699944,0.045899998,0.0942,-0.003,3.236799955,2.554499865,8.983799934,0.083799995,0.101499997,0.0392,-3.07069993,9.044799805,-1.535300016,0.346499979,0.025799999,0.092999995,-3.07069993,9.044799805,-1.535300016,0.346499979,0.025799999,0.092999995
-2.231899977,3.641799927,8.728199959,0.0634,-0.010799999,0.0495,3.24029994,2.556900024,8.98029995,-0.0037,0.048999999,0.0392,-3.040799856,9.043600082,-1.553299904,0.206499994,-0.184199989,0.057999998,-3.040799856,9.043600082,-1.553299904,0.206499994,-0.184199989,0.057999998
-2.243900061,3.640599966,8.735300064,-0.059099998,0.164199993,0.0495,3.24029994,2.553299904,8.986199379,-0.091199994,0.048999999,0.0042,-3.034799814,9.042399406,-1.54369998,0.206499994,-0.0197,0.023,-3.034799814,9.042399406,-1.54369998,0.206499994,-0.0197,0.023
-2.228299856,3.634599924,8.732899666,-0.111599997,0.0242,0.119499996,3.24029994,2.556900024,8.982699394,-0.073699996,0.153999999,0.021699999,-3.037699938,9.047200203,-1.539899945,0.108499996,0.0083,0.023,-3.037699938,9.047200203,-1.539899945,0.108499996,0.0083,0.023
-2.234299898,3.6322999,8.740099907,-0.234099999,0.041699998,0.0495,3.242699862,2.553299904,8.984999657,-0.0037,-0.021,0.056699999,-3.045599937,9.044799805,-1.547299981,0.083999999,0.183299989,0.092999995,-3.045599937,9.044799805,-1.547299981,0.083999999,0.183299989,0.092999995
-2.223599911,3.628700018,8.719799995,-0.059099998,0.041699998,0.119499996,3.24029994,2.554499865,8.98029995,-0.0037,0.048999999,0.056699999,-3.05279994,9.042399406,-1.547299981,0.014,0.078299999,0.023,-3.05279994,9.042399406,-1.547299981,0.014,0.078299999,0.023
-2.233099937,3.633399963,8.736499786,-0.146599993,0.0942,0.067000002,3.237999916,2.550899982,8.987400055,-0.038699999,-0.090999998,0.0042,-3.06709981,9.045999527,-1.528199911,-0.0035,0.130799994,0.092999995,-3.06709981,9.045999527,-1.528199911,-0.0035,0.130799994,0.092999995
-2.242699862,3.641799927,8.735300064,-0.0416,0.076699995,0.0845,3.234400034,2.547399998,8.986199379,-0.056199998,0.048999999,0.021699999,-3.057799816,9.038599968,-1.52459991,0.206499994,-0.047699999,0.092999995,-3.057799816,9.038599968,-1.52459991,0.206499994,-0.047699999,0.092999995
-2.235499859,3.628700018,8.724599838,-0.059099998,0.076699995,-0.003,3.24029994,2.558099985,8.98029995,-0.0037,0.014,-0.048299998,-3.056799889,9.036699295,-1.529399991,0.178499997,-0.131699994,0.163000003,-3.056799889,9.036699295,-1.529399991,0.178499997,-0.131699994,0.163000003
-2.228299856,3.633399963,8.719799995,-0.111599997,-0.010799999,0.0495,3.239199877,2.553299904,8.983799934,0.136299998,-0.0735,0.126699999,-3.047999859,9.055500031,-1.514999986,0.276499987,-0.166699991,0.057999998,-3.047999859,9.055500031,-1.514999986,0.276499987,-0.166699991,0.057999998
-2.233099937,3.6322999,8.728199959,-0.0241,0.0067,0.0145,3.234400034,2.548499823,8.987400055,-0.0037,-0.055999998,-0.0133,-3.047999859,9.047200203,-1.529399991,0.398999989,-0.236699998,0.092999995,-3.047999859,9.047200203,-1.529399991,0.398999989,-0.236699998,0.092999995
-2.227099895,3.640599966,8.732899666,-0.0416,0.0942,0.031999998,3.239199877,2.554499865,8.975500107,0.066299997,-0.021,-0.048299998,-3.051100016,9.043299675,-1.533199906,0.346499979,-0.341699988,0.107000001,-3.051100016,9.043299675,-1.533199906,0.346499979,-0.341699988,0.107000001
-2.228100061,3.636999846,8.718400002,-0.0276,0.0242,0.0495,3.243899822,2.562899828,8.9897995,0.066299997,-0.021,-0.0133,-3.038699865,9.047200203,-1.529399991,0.262499988,-0.41169998,0.13499999,-3.038699865,9.047200203,-1.529399991,0.262499988,-0.41169998,0.13499999
-2.233799934,3.642799854,8.727000237,0.0284,0.066199996,0.021499999,3.239199877,2.559299946,8.975500107,-0.0037,0.118999995,-0.0133,-3.024099827,9.054299355,-1.535300016,0.294,-0.201700002,0.023,-3.024099827,9.054299355,-1.535300016,0.294,-0.201700002,0.023
-2.228100061,3.635099888,8.727000237,-0.0416,0.220199987,0.091499999,3.234400034,2.552099943,8.983799934,-0.0037,-0.0035,-0.0133,-3.033599854,9.05079937,-1.547299981,0.136500001,-0.0792,0.057999998,-3.033599854,9.05079937,-1.547299981,0.136500001,-0.0792,0.057999998
-2.234799862,3.630299807,8.734600067,0.0704,0.0242,0.0495,3.243899822,2.559299946,8.982699394,0.066299997,-0.021,0.056699999,-3.057499886,9.032799721,-1.54369998,0.118999995,-0.044199999,0.023,-3.057499886,9.032799721,-1.54369998,0.118999995,-0.044199999,0.023
-2.230000019,3.6322999,8.731699944,0.0704,0.0242,0.0495,3.247499943,2.556900024,8.973099709,0.066299997,-0.021,0.056699999,-3.052999973,9.048099518,-1.544699907,0.136500001,-0.131699994,0.023,-3.052999973,9.048099518,-1.544699907,0.136500001,-0.131699994,0.023
-2.227099895,3.636099815,8.738399506,0.098399997,0.066199996,0.0495,3.243899822,2.556900024,8.9897995,0.048799999,0.031500001,0.056699999,-3.04919982,9.050999641,-1.547500014,0.066500001,-0.0757,0.050999999,-3.04919982,9.050999641,-1.547500014,0.066500001,-0.0757,0.050999999
-2.230000019,3.639899969,8.723099709,0.042399999,-0.059799999,-0.020499999,3.245100021,2.547399998,8.995800018,0.153799996,-0.021,0.021699999,-3.047999859,9.033999443,-1.54610002,0.014,-0.131699994,-0.012,-3.047999859,9.033999443,-1.54610002,0.014,-0.131699994,-0.012
-2.234799862,3.638000011,8.728899956,-0.125599995,0.066199996,0.021499999,3.248699903,2.554499865,8.975500107,0.066299997,-0.090999998,-0.065799996,-3.047999859,9.047200203,-1.548499942,0.066500001,-0.184199989,0.075499997,-3.047999859,9.047200203,-1.548499942,0.066500001,-0.184199989,0.075499997
-2.237699986,3.638000011,8.724100113,-0.111599997,-0.0178,0.133499995,3.241499901,2.561699867,8.998199463,-0.0037,-0.021,-0.0133,-3.037199974,9.049599648,-1.542500019,0.083999999,-0.061699998,0.023,-3.037199974,9.049599648,-1.542500019,0.083999999,-0.061699998,0.023
-2.240499973,3.627499819,8.717399597,-0.013599999,-0.0458,0.035499997,3.236799955,2.558099985,8.992199898,-0.038699999,0.048999999,0.056699999,-3.028100014,9.044300079,-1.535099983,0.080499999,0.092299998,-0.046999998,-3.028100014,9.044300079,-1.535099983,0.080499999,0.092299998,-0.046999998
-2.233799934,3.641799927,8.731699944,-0.0276,-0.185800001,-0.020499999,3.242699862,2.556900024,8.979100227,-0.073699996,0.048999999,-0.0133,-3.042500019,9.048099518,-1.515999913,-0.115499996,0.2183,-0.046999998,-3.042500019,9.048099518,-1.515999913,-0.115499996,0.2183,-0.046999998
-2.233799934,3.638000011,8.727899551,0.0144,-0.14379999,0.0075,3.24029994,2.548499823,8.975500107,-0.143700004,0.048999999,-0.0133,-3.06709981,9.036399841,-1.516199946,-0.1435,0.060799997,-0.046999998,-3.06709981,9.036399841,-1.516199946,-0.1435,0.060799997,-0.046999998
-2.236700058,3.641799927,8.73939991,0.0284,-0.087799996,0.035499997,3.246299982,2.562899828,8.991000175,-0.1087,0.118999995,0.021699999,-3.056299925,9.035200119,-1.523399949,0.118999995,-0.131699994,0.092999995,-3.056299925,9.035200119,-1.523399949,0.118999995,-0.131699994,0.092999995
-2.232899904,3.63319993,8.741299629,0.0284,-0.185800001,0.077500001,3.24029994,2.552099943,8.984999657,-0.073699996,0.014,0.0042,-3.065399885,9.047200203,-1.523599982,0.1505,-0.201700002,0.148999989,-3.065399885,9.047200203,-1.523599982,0.1505,-0.201700002,0.148999989
-2.232899904,3.638000011,8.730799675,0.0704,-0.213799998,0.0495,3.24029994,2.556900024,8.979100227,-0.091199994,-0.021,0.056699999,-3.06159997,9.037599564,-1.522699952,0.108499996,-0.271699995,0.107000001,-3.06159997,9.037599564,-1.522699952,0.108499996,-0.271699995,0.107000001
-2.235499859,3.640599966,8.729299545,-0.094099998,-0.15079999,0.0495,3.234400034,2.560499907,8.981499672,-0.038699999,0.153999999,0.056699999,-3.041999817,9.043600082,-1.535300016,0.206499994,-0.254199982,0.163000003,-3.041999817,9.043600082,-1.535300016,0.206499994,-0.254199982,0.163000003
-2.225899935,3.633399963,8.728199959,0.0284,-0.273299992,-0.020499999,3.239199877,2.552099943,8.9897995,0.048799999,0.048999999,-0.0133,-3.037199974,9.044799805,-1.538900018,0.066500001,-0.2192,0.163000003,-3.037199974,9.044799805,-1.538900018,0.066500001,-0.2192,0.163000003
-2.228299856,3.635799885,8.725799561,0.080899999,-0.185800001,-0.037999999,3.24029994,2.556900024,8.9897995,0.031300001,0.048999999,0.021699999,-3.036000013,9.05079937,-1.538900018,0.118999995,-0.114199996,0.180500001,-3.036000013,9.05079937,-1.538900018,0.118999995,-0.114199996,0.180500001
-2.229500055,3.628700018,8.740099907,0.16839999,-0.308299989,-0.090499997,3.231999874,2.556900024,8.983799934,0.083799995,-0.021,-0.0133,-3.038699865,9.046199799,-1.518899918,0.0385,0.050299998,0.218999997,-3.038699865,9.046199799,-1.518899918,0.0385,0.050299998,0.218999997
-2.239099979,3.625099897,8.731699944,0.203400001,-0.325800002,-0.142999992,3.241499901,2.544999838,8.9897995,-0.056199998,-0.1435,-0.048299998,-3.025300026,9.053899765,-1.51789999,-0.0175,0.274299979,0.050999999,-3.025300026,9.053899765,-1.51789999,-0.0175,0.274299979,0.050999999
-2.229500055,3.638199806,8.730500221,0.290899992,-0.273299992,-0.177999988,3.242699862,2.548499823,8.975500107,-0.1087,-0.0735,0.056699999,-3.027699947,9.053099632,-1.513799906,0.048999999,0.288300008,0.023,-3.027699947,9.053099632,-1.513799906,0.048999999,0.288300008,0.023
-2.233099937,3.644199848,8.730500221,0.16839999,-0.168300003,-0.16049999,3.245100021,2.556900024,8.98029995,-0.0037,0.014,-0.0308,-3.061100006,9.049599648,-1.529399991,0.066500001,0.2183,-0.0295,-3.061100006,9.049599648,-1.529399991,0.066500001,0.2183,-0.0295
-2.230700016,3.629899979,8.728199959,0.150899991,-0.185800001,-0.107999995,3.247499943,2.553299904,8.971899986,-0.161200002,-0.055999998,-0.0133,-3.073099852,9.044300079,-1.531299949,0.178499997,-0.0757,-0.033,-3.073099852,9.044300079,-1.531299949,0.178499997,-0.0757,-0.033
-2.229500055,3.634599924,8.718599319,0.518400013,-0.325800002,-0.230499998,3.247499943,2.558099985,8.973099709,-0.021199999,0.014,0.056699999,-3.069299936,9.028999329,-1.539899945,0.206499994,-0.41169998,0.13499999,-3.069299936,9.028999329,-1.539899945,0.206499994,-0.41169998,0.13499999
-2.228299856,3.634599924,8.727000237,0.378399998,-0.255799979,-0.230499998,3.237999916,2.558099985,8.965899467,-0.073699996,-0.0385,-0.0133,-3.05279994,9.035200119,-1.547299981,0.276499987,-0.481699973,0.268000007,-3.05279994,9.035200119,-1.547299981,0.276499987,-0.481699973,0.268000007
-2.233099937,3.6322999,8.730500221,0.60589999,-0.325800002,-0.300500005,3.239199877,2.554499865,8.981499672,-0.073699996,-0.0035,0.056699999,-3.033599854,9.049599648,-1.553299904,0.171499997,-0.46419999,0.215499997,-3.033599854,9.049599648,-1.553299904,0.171499997,-0.46419999,0.215499997
-2.22239995,3.636999846,8.720999718,0.535899997,-0.360799998,-0.230499998,3.236799955,2.552099943,8.977899551,0.048799999,0.048999999,0.056699999,-3.022899866,9.047200203,-1.553299904,-0.108499996,-0.131699994,0.215499997,-3.022899866,9.047200203,-1.553299904,-0.108499996,-0.131699994,0.215499997
-2.22239995,3.638199806,8.725799561,0.728399992,-0.273299992,-0.352999985,3.245100021,2.552099943,8.984999657,-0.073699996,0.014,0.056699999,-3.019500017,9.047200203,-1.546599984,-0.0735,0.022299999,0.092999995,-3.019500017,9.047200203,-1.546599984,-0.0735,0.022299999,0.092999995
-2.237900019,3.634599924,8.727000237,0.623399973,-0.430799991,-0.300500005,3.24029994,2.564100027,8.975500107,-0.143700004,0.031500001,0.056699999,-3.039599895,9.042399406,-1.547500014,-0.171499997,0.3583,0.092999995,-3.039599895,9.042399406,-1.547500014,-0.171499997,0.3583,0.092999995
-2.217599869,3.646600008,8.728199959,0.623399973,-0.640799999,-0.370499998,3.242699862,2.561699867,8.984999657,0.066299997,0.048999999,-0.0133,-3.04919982,9.043600082,-1.542500019,-0.1435,0.288300008,0.0055,-3.04919982,9.043600082,-1.542500019,-0.1435,0.288300008,0.0055
-2.221199989,3.656099796,8.717399597,0.500899971,-0.448299974,-0.265499979,3.246299982,2.553299904,8.987400055,0.048799999,-0.0035,-0.0133,-3.065899849,9.056699753,-1.52579999,-0.090999998,-0.0092,0.023,-3.065899849,9.056699753,-1.52579999,-0.090999998,-0.0092,0.023
-2.225899935,3.641799927,8.730500221,0.325899988,-0.413299978,-0.230499998,3.249899864,2.559299946,8.98029995,-0.0037,-0.021,-0.048299998,-3.063499928,9.03880024,-1.530599952,0.014,-0.131699994,0.0405,-3.063499928,9.03880024,-1.530599952,0.014,-0.131699994,0.0405
-2.234299898,3.653800011,8.724599838,0.448399991,-0.308299989,-0.213,3.246299982,2.555699825,8.982699394,0.066299997,-0.021,-0.048299998,-3.05009985,9.047200203,-1.523599982,0.052499998,-0.313699991,0.023,-3.05009985,9.047200203,-1.523599982,0.052499998,-0.313699991,0.023
-2.221199989,3.641799927,8.736499786,0.238399997,-0.255799979,-0.090499997,3.241499901,2.553299904,8.991000175,0.048799999,-0.0035,0.056699999,-3.028100014,9.040499687,-1.52549994,-0.0735,-0.271699995,0.050999999,-3.028100014,9.040499687,-1.52549994,-0.0735,-0.271699995,0.050999999
-2.232899904,3.652299881,8.728899956,0.182399988,-0.185800001,-0.104499996,3.245100021,2.559299946,8.976699829,-0.0037,0.048999999,0.056699999,-3.030099869,9.05189991,-1.523399949,-0.021,0.0083,0.1105,-3.030099869,9.05189991,-1.523399949,-0.021,0.0083,0.1105
-2.229099989,3.642799854,8.728899956,0.0704,-0.059799999,-0.020499999,3.245100021,2.552099943,8.975500107,0.066299997,0.031500001,0.074199997,-3.038399935,9.042399406,-1.534099936,-0.266000003,-0.026699999,0.057999998,-3.038399935,9.042399406,-1.534099936,-0.266000003,-0.026699999,0.057999998
-2.225199938,3.642799854,8.734600067,0.294400007,-0.0458,-0.104499996,3.245100021,2.559299946,8.979100227,-0.038699999,-0.021,0.109200001,-3.028100014,9.059599876,-1.533199906,-0.0035,0.0083,0.023,-3.028100014,9.059599876,-1.533199906,-0.0035,0.0083,0.023
-2.226199865,3.642799854,8.724999428,-0.0416,-0.0458,-0.090499997,3.243899822,2.556900024,8.988599777,-0.0037,0.083999999,-0.048299998,-3.045399904,9.056699753,-1.549399972,-0.115499996,0.0083,0.064999998,-3.045399904,9.056699753,-1.549399972,-0.115499996,0.0083,0.064999998
-2.226199865,3.642799854,8.727899551,0.0284,-0.0458,-0.020499999,3.242699862,2.548499823,8.983799934,-0.056199998,0.031500001,0.021699999,-3.055199862,9.054299355,-1.531799912,-0.1435,-0.0092,0.092999995,-3.055199862,9.054299355,-1.531799912,-0.1435,-0.0092,0.092999995
-2.233799934,3.638899803,8.743199348,0.056399997,-0.171800002,0.021499999,3.24029994,2.556900024,8.992199898,0.0138,0.118999995,-0.135800004,-3.051599979,9.045999527,-1.537699938,-0.213499993,0.043299999,0.1105,-3.051599979,9.045999527,-1.537699938,-0.213499993,0.043299999,0.1105
-2.219499826,3.646600008,8.727000237,0.084399998,-0.185800001,0.0495,3.229599953,2.555699825,8.986199379,-0.0037,-0.0035,-0.0133,-3.043200016,9.048399925,-1.535300016,-0.213499993,0.078299999,0.127999991,-3.043200016,9.048399925,-1.535300016,-0.213499993,0.078299999,0.127999991
-2.224299908,3.643699884,8.727899551,0.0144,-0.14379999,-0.0065,3.242699862,2.561699867,8.98029995,0.101300001,0.118999995,-0.0308,-3.033900023,9.050000191,-1.536099911,-0.185499996,0.260299981,0.078999996,-3.033900023,9.050000191,-1.536099911,-0.185499996,0.260299981,0.078999996
-2.218499899,3.644699812,8.732699394,0.0004,0.066199996,0.119499996,3.254699945,2.547399998,8.995800018,-0.0037,0.014,-0.048299998,-3.03579998,9.050999641,-1.529399991,-0.115499996,0.330300003,0.092999995,-3.03579998,9.050999641,-1.529399991,-0.115499996,0.330300003,0.092999995
-2.224299908,3.648499966,8.732699394,0.0144,0.0942,0.119499996,3.243899822,2.558099985,8.99339962,-0.073699996,-0.021,0.056699999,-3.04919982,9.05079937,-1.52579999,-0.021,0.183299989,0.127999991,-3.04919982,9.05079937,-1.52579999,-0.021,0.183299989,0.127999991
-2.22239995,3.638899803,8.715499878,0.042399999,0.0242,0.0495,3.248699903,2.552099943,8.987400055,0.031300001,0.083999999,-0.0133,-3.053999901,9.044799805,-1.531799912,-0.213499993,0.148299992,0.075499997,-3.053999901,9.044799805,-1.531799912,-0.213499993,0.148299992,0.075499997
-2.215699911,3.641799927,8.717399597,-0.0416,0.136199996,0.119499996,3.24029994,2.547399998,8.984999657,-0.021199999,0.118999995,-0.083299994,-3.05279994,9.049599648,-1.532999992,0.066500001,0.0083,0.197999999,-3.05279994,9.049599648,-1.532999992,0.066500001,0.0083,0.197999999
-2.224299908,3.640899897,8.727000237,-0.0836,0.164199993,0.0495,3.241499901,2.546200037,8.988599777,-0.091199994,0.031500001,-0.0133,-3.04919982,9.052899361,-1.530299902,-0.059499998,-0.061699998,0.148999989,-3.04919982,9.052899361,-1.530299902,-0.059499998,-0.061699998,0.148999989
-2.230999947,3.636099815,8.727899551,-0.111599997,0.164199993,0.077500001,3.241499901,2.553299904,8.977899551,-0.0037,0.048999999,-0.048299998,-3.034799814,9.044300079,-1.52549994,-0.0035,0.050299998,0.163000003,-3.034799814,9.044300079,-1.52549994,-0.0035,0.050299998,0.163000003
-2.229099989,3.636099815,8.724999428,-0.069600001,0.122199997,0.105499998,3.245100021,2.561699867,8.98029995,0.066299997,-0.021,0.056699999,-3.025300026,9.049599648,-1.531799912,-0.0735,0.148299992,0.163000003,-3.025300026,9.049599648,-1.531799912,-0.0735,0.148299992,0.163000003
-2.244299889,3.642799854,8.729800224,-0.125599995,0.234200001,0.161499992,3.242699862,2.559299946,8.982699394,-0.021199999,0.031500001,0.056699999,-3.043200016,9.053099632,-1.529399991,-0.0735,0.200800002,0.268000007,-3.043200016,9.053099632,-1.529399991,-0.0735,0.200800002,0.268000007
-2.230700016,3.634599924,8.725799561,-0.18159999,0.304199994,0.119499996,3.251099825,2.549700022,8.982699394,0.0138,-0.021,-0.0133,-3.044399977,9.050999641,-1.528399944,-0.101499997,0.204300001,0.232999995,-3.044399977,9.050999641,-1.528399944,-0.101499997,0.204300001,0.232999995
-2.223599911,3.638199806,8.718599319,-0.164099991,0.041699998,0.101999998,3.248699903,2.553299904,8.983799934,0.066299997,0.118999995,0.056699999,-3.04919982,9.047200203,-1.519799948,-0.129500002,0.260299981,0.232999995,-3.04919982,9.047200203,-1.519799948,-0.129500002,0.260299981,0.232999995
-2.234299898,3.646600008,8.728199959,0.0109,0.0242,-0.003,3.245100021,2.553299904,8.984999657,-0.0037,0.014,0.0392,-3.040799856,9.047200203,-1.512599945,0.014,0.288300008,0.180500001,-3.040799856,9.047200203,-1.512599945,0.014,0.288300008,0.180500001
-2.218799829,3.644199848,8.735300064,-0.129099995,0.234200001,0.171999991,3.248699903,2.548499823,8.991000175,-0.038699999,0.048999999,-0.048299998,-3.028899908,9.044799805,-1.517399907,-0.021,0.288300008,0.092999995,-3.028899908,9.044799805,-1.517399907,-0.021,0.288300008,0.092999995
-2.225899935,3.652599812,8.724599838,-0.18159999,0.111699998,0.067000002,3.237999916,2.547399998,8.983799934,0.066299997,-0.0735,0.091699995,-3.045599937,9.05189991,-1.510299921,0.014,0.16579999,0.163000003,-3.045599937,9.05189991,-1.510299921,0.014,0.16579999,0.163000003
-2.225899935,3.645399809,8.720999718,-0.286599994,0.076699995,0.101999998,3.245100021,2.544999838,8.984999657,0.048799999,0.014,-0.0133,-3.055899858,9.042399406,-1.522699952,0.24849999,-0.215700001,0.261000007,-3.055899858,9.042399406,-1.522699952,0.24849999,-0.215700001,0.261000007
-2.220000029,3.641799927,8.730500221,-0.0766,0.0242,0.067000002,3.245100021,2.543799877,8.986199379,0.066299997,-0.0385,0.056699999,-3.042500019,9.043299675,-1.548499942,0.136500001,-0.201700002,0.204999998,-3.042500019,9.043299675,-1.548499942,0.136500001,-0.201700002,0.204999998
-2.231899977,3.647799969,8.728199959,-0.216600001,0.129199997,0.136999995,3.234400034,2.553299904,8.988599777,-0.0037,-0.021,-0.0133,-3.046799898,9.039999962,-1.547299981,0.136500001,-0.026699999,0.303000003,-3.046799898,9.039999962,-1.547299981,0.136500001,-0.026699999,0.303000003
-2.220000029,3.645399809,8.724599838,-0.251599997,0.129199997,0.189499989,3.242699862,2.565299988,8.983799934,-0.126199991,0.014,-0.0133,-3.037199974,9.047200203,-1.537699938,0.136500001,0.060799997,0.303000003,-3.037199974,9.047200203,-1.537699938,0.136500001,0.060799997,0.303000003
-2.237900019,3.633399963,8.707799911,-0.286599994,0.234200001,0.0845,3.236799955,2.554499865,8.992199898,-0.038699999,0.048999999,-0.0133,-3.029099941,9.050000191,-1.539899945,0.0385,0.204300001,0.303000003,-3.029099941,9.050000191,-1.539899945,0.0385,0.204300001,0.303000003
-2.24029994,3.642999887,8.716199875,-0.18159999,0.129199997,0.171999991,3.24029994,2.554499865,8.982699394,-0.091199994,-0.021,-0.065799996,-3.02429986,9.050000191,-1.547500014,0.024499999,0.3583,0.163000003,-3.02429986,9.050000191,-1.547500014,0.024499999,0.3583,0.163000003
-2.221199989,3.641799927,8.731699944,-0.18159999,-0.0458,0.119499996,3.248699903,2.552099943,8.987400055,-0.056199998,-0.0035,-0.0133,-3.031299829,9.054299355,-1.535300016,-0.090999998,0.305799991,0.163000003,-3.031299829,9.054299355,-1.535300016,-0.090999998,0.305799991,0.163000003
-2.213999987,3.641799927,8.72219944,-0.111599997,-0.028299998,0.154499993,3.248699903,2.558099985,8.986199379,-0.021199999,-0.0035,-0.0133,-3.051599979,9.028100014,-1.532999992,-0.055999998,0.288300008,0.303000003,-3.051599979,9.028100014,-1.532999992,-0.055999998,0.288300008,0.303000003
-2.221199989,3.638199806,8.729299545,-0.129099995,-0.0458,0.101999998,3.245100021,2.564100027,8.987400055,0.066299997,0.066500001,-0.0133,-3.059899807,9.033999443,-1.52459991,0.188999996,0.060799997,0.180500001,-3.059899807,9.033999443,-1.52459991,0.188999996,0.060799997,0.180500001
-2.217599869,3.639400005,8.72219944,-0.111599997,0.0242,0.119499996,3.247499943,2.556900024,8.984999657,0.048799999,0.031500001,-0.0133,-3.034799814,9.060599327,-1.534099936,0.052499998,-0.061699998,0.232999995,-3.034799814,9.060599327,-1.534099936,0.052499998,-0.061699998,0.232999995
-2.233099937,3.640599966,8.730500221,-0.111599997,0.0242,0.0495,3.253499985,2.547399998,8.979100227,0.066299997,0.014,-0.048299998,-3.027199984,9.05189991,-1.532199979,-0.0735,0.0083,0.218999997,-3.027199984,9.05189991,-1.532199979,-0.0735,0.0083,0.218999997
-2.220000029,3.644199848,8.725799561,-0.0416,0.234200001,0.119499996,3.249899864,2.543799877,8.979100227,0.048799999,0.014,0.021699999,-3.026499987,9.045999527,-1.52579999,-0.0035,0.060799997,0.268000007,-3.026499987,9.045999527,-1.52579999,-0.0035,0.060799997,0.268000007
-2.230700016,3.633399963,8.731699944,0.0109,0.181699991,0.067000002,3.24029994,2.549700022,8.987400055,-0.038699999,-0.0035,0.021699999,-3.024099827,9.045999527,-1.52579999,0.066500001,0.043299999,0.163000003,-3.024099827,9.045999527,-1.52579999,0.066500001,0.043299999,0.163000003
-2.242699862,3.642999887,8.729299545,-0.129099995,0.269199997,0.101999998,3.248699903,2.552099943,8.979100227,-0.0037,-0.021,-0.0133,-3.013299942,9.057899475,-1.536499977,-0.0035,0.2183,0.163000003,-3.013299942,9.057899475,-1.536499977,-0.0035,0.2183,0.163000003
-2.227099895,3.644699812,8.727000237,-0.0416,-0.031799998,0.105499998,3.247499943,2.544999838,8.981499672,0.031300001,-0.0035,-0.0133,-3.020499945,9.05189991,-1.531299949,-0.031500001,0.400299996,0.177000001,-3.020499945,9.05189991,-1.531299949,-0.031500001,0.400299996,0.177000001
-2.22329998,3.646600008,8.731699944,-0.153599992,-0.0178,0.0495,3.24029994,2.561699867,8.990799904,-0.073699996,0.007,-0.0133,-3.042500019,9.048099518,-1.529399991,-0.059499998,0.414299995,0.092999995,-3.042500019,9.048099518,-1.529399991,-0.059499998,0.414299995,0.092999995
-2.241499901,3.6474998,8.73939991,-0.279599994,-0.0458,0.119499996,3.248999834,2.562599897,8.986999512,-0.0037,0.048999999,0.014699999,-3.050400019,9.048399925,-1.531799912,-0.0035,0.270799994,0.232999995,-3.050400019,9.048399925,-1.531799912,-0.0035,0.270799994,0.232999995
-2.227099895,3.635099888,8.721199989,-0.139599994,-0.0178,0.0495,3.241299868,2.556900024,8.9897995,-0.0177,-0.007,0.0287,-3.043200016,9.049599648,-1.520999908,0.031500001,0.16579999,0.163000003,-3.043200016,9.049599648,-1.520999908,0.031500001,0.16579999,0.163000003
-2.230000019,3.63319993,8.736499786,-0.2236,0.010199999,-0.020499999,3.233700037,2.552099943,8.988900185,-0.073699996,0.048999999,0.0007,-3.030099869,9.047200203,-1.528399944,0.1505,0.064300001,0.232999995,-3.030099869,9.047200203,-1.528399944,0.1505,0.064300001,0.232999995
-2.229099989,3.642799854,8.729800224,-0.111599997,0.052199997,0.133499995,3.231699944,2.558799982,8.988900185,-0.115699999,0.104999997,-0.0133,-3.032899857,9.050000191,-1.532199979,0.24849999,-0.103699997,0.177000001,-3.032899857,9.050000191,-1.532199979,0.24849999,-0.103699997,0.177000001
-2.230000019,3.641799927,8.734600067,-0.097599998,0.0942,0.091499999,3.241299868,2.546399832,8.976399422,-0.0037,0.118999995,0.0007,-3.021699905,9.057899475,-1.528199911,0.188999996,-0.096699998,0.232999995,-3.021699905,9.057899475,-1.528199911,0.188999996,-0.096699998,0.232999995
-2.227099895,3.636999846,8.736499786,-0.111599997,0.038199998,0.091499999,3.238399982,2.550199986,8.996500015,-0.0177,0.007,-0.041299999,-3.025300026,9.05189991,-1.531799912,0.118999995,0.043299999,0.163000003,-3.025300026,9.05189991,-1.531799912,0.118999995,0.043299999,0.163000003
-2.227099895,3.638000011,8.735599518,-0.209600002,0.136199996,0.189499989,3.242300034,2.558799982,8.983099937,-0.0037,0.118999995,-0.041299999,-3.026499987,9.055500031,-1.52699995,0.206499994,0.148299992,0.232999995,-3.026499987,9.055500031,-1.52699995,0.206499994,0.148299992,0.232999995
-2.231899977,3.634199858,8.724100113,-0.111599997,0.108199999,0.147499993,3.238399982,2.548300028,8.984999657,0.0103,0.035,-0.0133,-3.029099941,9.050000191,-1.54369998,0.1505,0.120299995,0.163000003,-3.029099941,9.050000191,-1.54369998,0.1505,0.120299995,0.163000003
-2.230000019,3.642799854,8.724999428,-0.2236,0.0942,0.161499992,3.245100021,2.553999901,8.978300095,-0.0037,-0.035,-0.041299999,-3.025300026,9.050999641,-1.529399991,0.206499994,0.134299994,0.289000005,-3.025300026,9.050999641,-1.529399991,0.206499994,0.134299994,0.289000005
-2.230999947,3.643699884,8.727000237,-0.167599991,0.19219999,0.0495,3.242300034,2.553999901,8.984099388,0.066299997,-0.104999997,-0.0133,-3.021699905,9.049599648,-1.534099936,0.066500001,0.0083,0.197999999,-3.021699905,9.049599648,-1.534099936,0.066500001,0.0083,0.197999999
-2.237699986,3.644699812,8.728899956,-0.167599991,0.276199996,0.0495,3.242300034,2.555999994,8.992699623,0.0103,-0.048999999,-0.069299996,-3.031299829,9.047200203,-1.532999992,0.259000003,0.130799994,0.232999995,-3.031299829,9.047200203,-1.532999992,0.259000003,0.130799994,0.232999995
-2.232899904,3.636999846,8.732699394,-0.111599997,0.346199989,0.021499999,3.241299868,2.553999901,8.978300095,-0.073699996,0.021,-0.055299997,-3.020499945,9.059100151,-1.52579999,0.206499994,0.148299992,0.163000003,-3.020499945,9.059100151,-1.52579999,0.206499994,0.148299992,0.163000003
-2.234799862,3.635099888,8.729800224,-0.097599998,0.164199993,0.105499998,3.238399982,2.558799982,8.981200218,0.094299994,0.021,-0.0133,-3.038699865,9.05189991,-1.52549994,0.192499995,-0.0057,0.232999995,-3.038699865,9.05189991,-1.52549994,0.192499995,-0.0057,0.232999995
-2.241499901,3.634199858,8.725999832,-0.055599999,0.080200002,0.063500002,3.234599829,2.554999828,8.976399422,-0.073699996,-0.063000001,0.0427,-3.033900023,9.050999641,-1.534099936,0.346499979,-0.187699988,0.232999995,-3.033900023,9.050999641,-1.534099936,0.346499979,-0.187699988,0.232999995
-2.235499859,3.641799927,8.724599838,-0.216600001,-0.028299998,0.0495,3.24029994,2.56069994,8.984999657,-0.1017,-0.063000001,0.0007,-3.033599854,9.043600082,-1.540099978,0.276499987,-0.131699994,0.197999999,-3.033599854,9.043600082,-1.540099978,0.276499987,-0.131699994,0.197999999
-2.220000029,3.644199848,8.731699944,-0.129099995,0.0592,0.031999998,3.236500025,2.545399904,8.983099937,-0.073699996,0.048999999,0.098699994,-3.028899908,9.05189991,-1.536499977,0.136500001,-0.201700002,0.215499997,-3.028899908,9.05189991,-1.536499977,0.136500001,-0.201700002,0.215499997
-2.229500055,3.631099939,8.727000237,-0.0066,0.164199993,0.0145,3.242300034,2.549299955,8.98029995,-0.0037,0.021,-0.0133,-3.021499872,9.035699844,-1.554199934,0.108499996,-0.089699998,0.204999998,-3.021499872,9.035699844,-1.554199934,0.108499996,-0.089699998,0.204999998
-2.234299898,3.636999846,8.72219944,0.0284,0.0942,0.0495,3.246099949,2.548300028,8.984099388,-0.0037,-0.021,0.0007,-3.004299879,9.047200203,-1.557999969,0.136500001,-0.0057,0.078999996,-3.004299879,9.047200203,-1.557999969,0.136500001,-0.0057,0.078999996
-2.235499859,3.642999887,8.735300064,0.0284,0.199199989,0.0495,3.24029994,2.542599916,8.984999657,0.052299999,-0.021,0.014699999,-2.988199949,9.056699753,-1.550899982,0.031500001,0.288300008,0.057999998,-2.988199949,9.056699753,-1.550899982,0.031500001,0.288300008,0.057999998
-2.236700058,3.640599966,8.720999718,0.0284,0.146699995,0.0145,3.238399982,2.56069994,8.986000061,-0.059699997,0.147,0.0287,-3.003799915,9.05189991,-1.537699938,-0.090999998,0.480799973,-0.046999998,-3.003799915,9.05189991,-1.537699938,-0.090999998,0.480799973,-0.046999998
-2.24029994,3.6322999,8.728199959,0.045899998,0.0242,0.067000002,3.248999834,2.553099871,8.979299545,0.080299996,-0.021,-0.0133,-3.027699947,9.057899475,-1.52459991,-0.1435,0.428299993,0.0055,-3.027699947,9.057899475,-1.52459991,-0.1435,0.428299993,0.0055
-2.234299898,3.635799885,8.724599838,0.0284,0.0942,0.119499996,3.242300034,2.549299955,8.984999657,-0.0037,0.021,0.0287,-3.043399811,9.048099518,-1.531299949,-0.0175,0.344300002,-0.018999999,-3.043399811,9.048099518,-1.531299949,-0.0175,0.344300002,-0.018999999
-2.239099979,3.633399963,8.728199959,0.0634,0.041699998,0.0495,3.238399982,2.550199986,8.98029995,-0.0037,0.048999999,-0.0133,-3.060599804,9.038599968,-1.521699905,0.0105,0.2183,0.050999999,-3.060599804,9.038599968,-1.521699905,0.0105,0.2183,0.050999999
-2.24029994,3.635799885,8.729299545,-0.0416,-0.080799997,0.154499993,3.232699871,2.551199913,8.979299545,-0.143700004,0.077,-0.0133,-3.057499886,9.048399925,-1.52699995,0.153999999,-0.0092,0.232999995,-3.057499886,9.048399925,-1.52699995,0.153999999,-0.0092,0.232999995
-2.235499859,3.635799885,8.723400116,-0.0766,-0.115800001,-0.020499999,3.237499952,2.553999901,8.992699623,-0.1017,0.118999995,0.056699999,-3.033599854,9.045999527,-1.547299981,0.223999992,-0.131699994,0.232999995,-3.033599854,9.045999527,-1.547299981,0.223999992,-0.131699994,0.232999995
-2.241499901,3.635799885,8.72219944,0.0284,-0.115800001,-0.020499999,3.247999907,2.554999828,8.996500015,-0.269699991,0.118999995,0.0427,-3.000399828,9.054800034,-1.545599937,0.0385,-0.089699998,0.303000003,-3.000399828,9.054800034,-1.545599937,0.0385,-0.089699998,0.303000003
-2.234299898,3.634599924,8.736499786,-0.094099998,-0.080799997,0.0845,3.234599829,2.550199986,8.988900185,-0.241699994,0.090999998,0.0287,-3.002300024,9.052899361,-1.541799903,0.094499998,0.176299989,0.092999995,-3.002300024,9.052899361,-1.541799903,0.094499998,0.176299989,0.092999995
-2.24029994,3.628700018,8.728199959,0.0284,-0.133299991,0.0845,3.24029994,2.545399904,8.98029995,-0.12969999,0.104999997,-0.0133,-3.024099827,9.047200203,-1.535300016,-0.0035,0.288300008,0.023,-3.024099827,9.047200203,-1.535300016,-0.0035,0.288300008,0.023
-2.234299898,3.635799885,8.723400116,-0.059099998,-0.063299999,-0.020499999,3.245100021,2.544499874,8.982199669,-0.157700002,0.077,-0.0133,-3.028899908,9.05079937,-1.529399991,0.101499997,0.270799994,0.023,-3.028899908,9.05079937,-1.529399991,0.101499997,0.270799994,0.023
-2.236700058,3.644199848,8.725799561,0.0284,-0.063299999,0.031999998,3.241299868,2.552099943,8.982199669,-0.171700001,0.118999995,0.056699999,-3.050400019,9.047200203,-1.532999992,0.101499997,0.078299999,0.163000003,-3.050400019,9.047200203,-1.532999992,0.101499997,0.078299999,0.163000003
-2.229500055,3.641799927,8.718599319,0.0284,0.0242,-0.020499999,3.242300034,2.548300028,8.984999657,-0.073699996,0.048999999,-0.0273,-3.045399904,9.036699295,-1.532199979,0.094499998,-0.0757,0.092999995,-3.045399904,9.036699295,-1.532199979,0.094499998,-0.0757,0.092999995
-2.228299856,3.638199806,8.732899666,-0.0416,0.0242,-0.020499999,3.237499952,2.557899952,8.982199669,-0.0177,0.160999998,-0.083299994,-3.031999826,9.05189991,-1.529399991,0.136500001,-0.257699996,0.163000003,-3.031999826,9.05189991,-1.529399991,0.136500001,-0.257699996,0.163000003
-2.231899977,3.641799927,8.724599838,0.115899995,0.0942,0.0495,3.235599995,2.558799982,8.993599892,-0.12969999,0.230999991,0.056699999,-3.025300026,9.060299873,-1.532999992,0.153999999,-0.131699994,0.163000003,-3.025300026,9.060299873,-1.532999992,0.153999999,-0.131699994,0.163000003
-2.231899977,3.627499819,8.723099709,0.098399997,0.0942,0.0495,3.242300034,2.549299955,8.978300095,-0.12969999,0.188999996,0.070699997,-3.021699905,9.053099632,-1.552099943,0.153999999,0.025799999,0.232999995,-3.021699905,9.053099632,-1.552099943,0.153999999,0.025799999,0.232999995
-2.233799934,3.634199858,8.725999832,-0.013599999,0.150199994,0.0495,3.233700037,2.549299955,8.983099937,-0.0037,0.24499999,0.056699999,-3.014499903,9.056699753,-1.541299939,0.328999996,0.078299999,0.163000003,-3.014499903,9.056699753,-1.541299939,0.328999996,0.078299999,0.163000003
-2.241499901,3.636999846,8.725999832,0.140399992,0.136199996,0.0495,3.238399982,2.542599916,8.990799904,-0.0037,0.147,0.056699999,-3.014799833,9.0625,-1.540799975,0.066500001,0.260299981,0.064999998,-3.014799833,9.0625,-1.540799975,0.066500001,0.260299981,0.064999998
-2.245300055,3.636999846,8.730799675,0.042399999,0.164199993,0.0075,3.230799913,2.542599916,8.986999512,-0.073699996,0.007,0.0427,-3.02339983,9.053899765,-1.538900018,0.066500001,0.344300002,0.148999989,-3.02339983,9.053899765,-1.538900018,0.066500001,0.344300002,0.148999989
-2.237699986,3.638000011,8.724100113,-0.069600001,0.150199994,0.0495,3.245100021,2.541599989,8.984999657,-0.0037,0.118999995,-0.0133,-3.026499987,9.056699753,-1.531799912,0.24149999,0.253299981,0.145499989,-3.026499987,9.056699753,-1.531799912,0.24149999,0.253299981,0.145499989
-2.236700058,3.635099888,8.724100113,0.0144,0.0942,0.0495,3.242300034,2.542599916,8.98789978,0.052299999,0.007,-0.055299997,-3.025300026,9.05079937,-1.529399991,0.101499997,0.078299999,0.145499989,-3.025300026,9.05079937,-1.529399991,0.101499997,0.078299999,0.145499989
-2.235699892,3.635099888,8.728899956,-0.097599998,-0.0458,0.063500002,3.24029994,2.547399998,8.986000061,0.136299998,0.090999998,0.014699999,-3.025300026,9.053899765,-1.537999988,0.136500001,0.148299992,0.092999995,-3.025300026,9.053899765,-1.537999988,0.136500001,0.148299992,0.092999995
-2.234799862,3.634199858,8.728899956,0.0004,0.010199999,0.077500001,3.236500025,2.555999994,8.98789978,0.066299997,0.160999998,0.070699997,-3.027199984,9.058599472,-1.538900018,0.108499996,0.064300001,0.092999995,-3.027199984,9.058599472,-1.538900018,0.108499996,0.064300001,0.092999995
-2.234799862,3.643699884,8.735599518,0.0284,0.038199998,0.035499997,3.234599829,2.556900024,8.996500015,0.066299997,0.063000001,-0.0133,-3.020499945,9.055500031,-1.549699903,0.118999995,0.078299999,0.145499989,-3.020499945,9.055500031,-1.549699903,0.118999995,0.078299999,0.145499989
-2.235699892,3.634199858,8.719299316,-0.0416,0.0242,-0.020499999,3.24029994,2.549299955,8.986999512,-0.213699996,0.133000001,0.0007,-3.018100023,9.05189991,-1.54489994,0.136500001,0.078299999,0.057999998,-3.018100023,9.05189991,-1.54489994,0.136500001,0.078299999,0.057999998
-2.239599943,3.644699812,8.730799675,0.0704,0.0942,-0.020499999,3.231699944,2.553999901,8.979299545,-0.087699994,0.090999998,-0.069299996,-3.015699863,9.047200203,-1.552099943,0.136500001,0.148299992,-0.0295,-3.015699863,9.047200203,-1.552099943,0.136500001,0.148299992,-0.0295
-2.250999928,3.638899803,8.733699799,-0.0416,0.066199996,-0.0065,3.23939991,2.548300028,8.984999657,-0.073699996,0.048999999,-0.0133,-3.005199909,9.050000191,-1.551399946,0.052499998,0.260299981,-0.005,-3.005199909,9.050000191,-1.551399946,0.052499998,0.260299981,-0.005
-2.231899977,3.639899969,8.727899551,-0.013599999,0.066199996,0.035499997,3.235599995,2.547399998,8.986000061,-0.073699996,0.104999997,-0.0133,-3.019500017,9.048099518,-1.537999988,-0.045499999,0.274299979,0.023,-3.019500017,9.048099518,-1.537999988,-0.045499999,0.274299979,0.023
-2.239599943,3.635099888,8.727000237,-0.0276,0.136199996,0.021499999,3.232699871,2.547399998,8.986999512,-0.115699999,0.133000001,0.056699999,-3.032500029,9.047200203,-1.538900018,0.066500001,0.2183,0.023,-3.032500029,9.047200203,-1.538900018,0.066500001,0.2183,0.023
-2.230999947,3.640899897,8.724999428,0.084399998,0.038199998,0.0075,3.24029994,2.546399832,8.984999657,-0.073699996,0.090999998,0.014699999,-3.032500029,9.054299355,-1.538900018,0.136500001,0.3583,-0.116999999,-3.032500029,9.054299355,-1.538900018,0.136500001,0.3583,-0.116999999
-2.227099895,3.639400005,8.731699944,0.0284,0.164199993,-0.020499999,3.242300034,2.537799835,8.984099388,-0.115699999,0.048999999,0.014699999,-3.033599854,9.05189991,-1.530599952,0.066500001,0.2183,0.023,-3.033599854,9.05189991,-1.530599952,0.066500001,0.2183,0.023
-2.239099979,3.640599966,8.723400116,-0.0066,0.146699995,-0.020499999,3.238399982,2.541599989,8.98789978,-0.1017,0.104999997,-0.0133,-3.03579998,9.05189991,-1.529399991,0.136500001,0.0083,0.078999996,-3.03579998,9.05189991,-1.529399991,0.136500001,0.0083,0.078999996
-2.241499901,3.651399851,8.730500221,0.0284,0.0242,0.067000002,3.235599995,2.543499947,8.988900185,0.0103,0.118999995,-0.0133,-3.03579998,9.052899361,-1.533199906,0.0385,-0.131699994,0.023,-3.03579998,9.052899361,-1.533199906,0.0385,-0.131699994,0.023
-2.242699862,3.636999846,8.719799995,0.0284,-0.028299998,-0.020499999,3.241299868,2.549299955,8.986000061,0.136299998,-0.021,0.056699999,-3.028899908,9.048399925,-1.54610002,0.101499997,-0.166699991,0.092999995,-3.028899908,9.048399925,-1.54610002,0.101499997,-0.166699991,0.092999995
-2.24029994,3.644199848,8.732899666,0.098399997,0.0242,0.067000002,3.23939991,2.548300028,8.991700172,0.066299997,0.160999998,0.056699999,-3.021699905,9.049599648,-1.548499942,0.118999995,-0.149199992,0.023,-3.021699905,9.049599648,-1.548499942,0.118999995,-0.149199992,0.023
-2.24029994,3.631099939,8.725799561,0.115899995,0.0242,-0.020499999,3.24029994,2.553999901,8.984099388,0.0103,0.118999995,0.056699999,-3.006199837,9.053899765,-1.546599984,0.122499995,-0.0337,0.023,-3.006199837,9.053899765,-1.546599984,0.122499995,-0.0337,0.023
-2.229500055,3.640599966,8.719799995,0.133399993,-0.0458,-0.037999999,3.245100021,2.548300028,8.983099937,0.150299996,0.048999999,0.056699999,-3.008999825,9.065299988,-1.552299976,0.080499999,0.162299991,0.009,-3.008999825,9.065299988,-1.552299976,0.080499999,0.162299991,0.009
-2.235499859,3.634599924,8.724599838,0.115899995,-0.115800001,-0.16049999,3.236500025,2.552099943,8.98029995,0.066299997,0.048999999,0.056699999,-3.006199837,9.061499596,-1.54489994,-0.0385,0.375799984,-0.0295,-3.006199837,9.061499596,-1.54489994,-0.0385,0.375799984,-0.0295
-2.225899935,3.638199806,8.72219944,0.080899999,-0.010799999,-0.037999999,3.237499952,2.538800001,8.982199669,-0.073699996,-0.007,0.014699999,-3.025300026,9.047200203,-1.548499942,-0.0735,0.305799991,-0.0995,-3.025300026,9.047200203,-1.548499942,-0.0735,0.305799991,-0.0995
-2.233099937,3.640599966,8.719799995,0.16839999,-0.115800001,-0.020499999,3.237499952,2.546399832,8.988900185,0.1083,-0.021,0.0007,-3.031299829,9.056699753,-1.549699903,-0.0035,0.148299992,-0.116999999,-3.031299829,9.056699753,-1.549699903,-0.0035,0.148299992,-0.116999999
-2.236700058,3.638199806,8.725799561,0.0284,-0.028299998,-0.037999999,3.23939991,2.548300028,8.990799904,0.066299997,0.077,0.014699999,-3.017599821,9.04529953,-1.539899945,-0.129500002,0.204300001,-0.130999997,-3.017599821,9.04529953,-1.539899945,-0.129500002,0.204300001,-0.130999997
-2.245100021,3.645399809,8.720999718,0.098399997,0.0242,-0.003,3.227900028,2.549299955,8.993599892,0.136299998,-0.021,-0.0133,-3.02339983,9.046199799,-1.538900018,-0.171499997,0.246299997,0.023,-3.02339983,9.046199799,-1.538900018,-0.171499997,0.246299997,0.023
-2.237900019,3.646600008,8.727000237,0.0109,0.0242,0.0495,3.234599829,2.548300028,8.995599747,0.164299995,-0.021,0.014699999,-3.039599895,9.048399925,-1.529399991,-0.1435,0.200800002,0.0055,-3.039599895,9.048399925,-1.529399991,-0.1435,0.200800002,0.0055
-2.243900061,3.641799927,8.734099388,0.0284,-0.0458,0.0495,3.235599995,2.547399998,8.994599342,-0.045699999,-0.021,0.014699999,-3.039599895,9.05189991,-1.536499977,-0.0735,0.183299989,-0.046999998,-3.039599895,9.05189991,-1.536499977,-0.0735,0.183299989,-0.046999998
-2.233099937,3.638199806,8.740099907,-0.0066,0.0242,0.067000002,3.24029994,2.553999901,8.98789978,-0.087699994,-0.021,-0.083299994,-3.041499853,9.047200203,-1.537999988,-0.0175,-0.0057,0.078999996,-3.041499853,9.047200203,-1.537999988,-0.0175,-0.0057,0.078999996
-2.228299856,3.634599924,8.737699509,0.0284,-0.010799999,-0.055499997,3.236500025,2.558799982,8.986999512,-0.0037,0.048999999,-0.041299999,-3.036799908,9.05189991,-1.538900018,0.178499997,-0.145699993,0.092999995,-3.036799908,9.05189991,-1.538900018,0.178499997,-0.145699993,0.092999995
-2.233099937,3.638199806,8.727000237,0.0284,0.0942,0.0495,3.234599829,2.546399832,8.98789978,-0.059699997,0.063000001,-0.0133,-3.019299984,9.053099632,-1.547299981,-0.0385,-0.131699994,0.023,-3.019299984,9.053099632,-1.547299981,-0.0385,-0.131699994,0.023
-2.228299856,3.639400005,8.723400116,0.0634,0.0242,-0.020499999,3.234599829,2.537799835,8.98029995,0.066299997,-0.021,0.014699999,-3.013299942,9.053099632,-1.553299904,0.031500001,-0.044199999,-0.046999998,-3.013299942,9.053099632,-1.553299904,0.031500001,-0.044199999,-0.046999998
-2.243900061,3.636999846,8.724599838,0.0109,0.0242,-0.020499999,3.230799913,2.553999901,8.981200218,0.136299998,-0.035,-0.0133,-3.018100023,9.05189991,-1.54369998,0.101499997,0.078299999,0.023,-3.018100023,9.05189991,-1.54369998,0.101499997,0.078299999,0.023
-2.241499901,3.638899803,8.731699944,0.042399999,-0.0178,0.0075,3.236500025,2.549299955,8.986999512,0.20629999,0.090999998,0.0287,-3.031999826,9.053899765,-1.544699907,0.066500001,0.064300001,0.092999995,-3.031999826,9.053899765,-1.544699907,0.066500001,0.064300001,0.092999995
-2.236700058,3.648499966,8.728899956,0.0144,0.038199998,0.105499998,3.235599995,2.541599989,8.9897995,0.20629999,0.035,-0.0133,-3.042500019,9.04529953,-1.536999941,0.052499998,0.0083,0.023,-3.042500019,9.04529953,-1.536999941,0.052499998,0.0083,0.023
-2.240499973,3.654199839,8.717399597,-0.097599998,-0.031799998,0.0495,3.244199991,2.543499947,8.988900185,0.192299992,-0.104999997,-0.0133,-3.040799856,9.055500031,-1.540099978,0.031500001,-0.0792,0.0405,-3.040799856,9.055500031,-1.540099978,0.031500001,-0.0792,0.0405
-2.237699986,3.651399851,8.729800224,-0.013599999,-0.073799998,-0.020499999,3.23939991,2.547399998,8.979299545,0.136299998,-0.035,-0.0133,-3.044399977,9.048399925,-1.54489994,-0.0035,-0.131699994,0.232999995,-3.044399977,9.048399925,-1.54489994,-0.0035,-0.131699994,0.232999995
-2.235699892,3.630299807,8.720299721,-0.0836,0.038199998,0.021499999,3.24029994,2.556900024,8.979299545,-0.0037,-0.007,-0.0133,-3.034799814,9.047200203,-1.549699903,0.136500001,-0.201700002,0.250499994,-3.034799814,9.047200203,-1.549699903,0.136500001,-0.201700002,0.250499994
-2.244299889,3.636999846,8.725999832,-0.0416,0.0242,-0.090499997,3.24029994,2.547399998,8.986000061,0.0383,-0.090999998,0.0427,-3.018599987,9.054800034,-1.541799903,0.136500001,-0.201700002,0.232999995,-3.018599987,9.054800034,-1.541799903,0.136500001,-0.201700002,0.232999995
-2.247200012,3.640899897,8.735599518,-0.0416,-0.0458,0.063500002,3.246099949,2.541599989,8.984099388,0.0383,-0.118999995,0.0007,-3.007099867,9.0625,-1.553299904,0.094499998,-0.201700002,0.232999995,-3.007099867,9.0625,-1.553299904,0.094499998,-0.201700002,0.232999995
-2.245300055,3.642799854,8.723099709,-0.0416,-0.101799995,0.021499999,3.247999907,2.545399904,8.986000061,-0.0177,-0.077,-0.083299994,-3.019299984,9.068699837,-1.559199929,0.171499997,0.043299999,0.180500001,-3.019299984,9.068699837,-1.559199929,0.171499997,0.043299999,0.180500001
-2.237699986,3.635099888,8.719299316,-0.111599997,-0.0458,-0.0065,3.24029994,2.546399832,8.988900185,-0.0177,-0.021,0.056699999,-3.021699905,9.043600082,-1.542500019,0.066500001,0.060799997,0.163000003,-3.021699905,9.043600082,-1.542500019,0.066500001,0.060799997,0.163000003
-2.234799862,3.636999846,8.731699944,-0.111599997,-0.129799992,-0.020499999,3.23939991,2.548300028,8.984999657,0.066299997,-0.160999998,0.056699999,-3.025300026,9.049099922,-1.540799975,0.094499998,0.050299998,0.092999995,-3.025300026,9.049099922,-1.540799975,0.094499998,0.050299998,0.092999995
-2.234799862,3.641799927,8.737500191,-0.055599999,-0.157799989,0.035499997,3.241299868,2.551199913,8.986999512,0.1083,-0.035,0.056699999,-3.026199818,9.05189991,-1.546599984,0.0385,-0.103699997,0.092999995,-3.026199818,9.05189991,-1.546599984,0.0385,-0.103699997,0.092999995
-2.247200012,3.638899803,8.732699394,-0.013599999,-0.241799995,0.0075,3.24029994,2.549299955,8.972599983,-0.087699994,-0.048999999,0.0427,-3.012099981,9.05189991,-1.550899982,-0.0035,-0.201700002,0.092999995,-3.012099981,9.05189991,-1.550899982,-0.0035,-0.201700002,0.092999995
-2.231899977,3.639899969,8.719299316,-0.0416,-0.1998,0.0495,3.24029994,2.547399998,8.984999657,-0.12969999,-0.021,-0.055299997,-3.020499945,9.054299355,-1.549699903,-0.0035,-0.131699994,0.075499997,-3.020499945,9.054299355,-1.549699903,-0.0035,-0.131699994,0.075499997
-2.233799934,3.63319993,8.716400146,0.0004,-0.185800001,0.063500002,3.233700037,2.553099871,8.983099937,-0.073699996,-0.021,-0.055299997,-3.030099869,9.061499596,-1.549699903,-0.0385,-0.061699998,0.092999995,-3.030099869,9.061499596,-1.549699903,-0.0385,-0.061699998,0.092999995
-2.230000019,3.638000011,8.728899956,0.084399998,-0.0458,0.035499997,3.243199825,2.55979991,8.977399826,-0.157700002,0.104999997,-0.0133,-3.031999826,9.05189991,-1.537999988,-0.059499998,-0.131699994,0.064999998,-3.031999826,9.05189991,-1.537999988,-0.059499998,-0.131699994,0.064999998
-2.235699892,3.638899803,8.717399597,0.140399992,-0.115800001,-0.0065,3.233700037,2.550199986,8.995599747,-0.255699992,0.188999996,0.084699996,-3.025300026,9.04529953,-1.541799903,-0.0035,-0.145699993,0.023,-3.025300026,9.04529953,-1.541799903,-0.0035,-0.145699993,0.023
-2.233099937,3.648999929,8.734099388,-0.0416,-0.15079999,-0.020499999,3.228899956,2.549299955,9.005099297,-0.073699996,0.174999997,0.098699994,-3.018100023,9.054299355,-1.538900018,-0.055999998,-0.0792,0.0055,-3.018100023,9.054299355,-1.538900018,-0.055999998,-0.0792,0.0055
-2.236700058,3.641799927,8.715000153,0.098399997,-0.15079999,-0.107999995,3.229799986,2.552099943,8.98789978,-0.115699999,0.048999999,-0.0133,-3.014499903,9.054299355,-1.54369998,-0.055999998,-0.044199999,0.092999995,-3.014499903,9.054299355,-1.54369998,-0.055999998,-0.044199999,0.092999995
-2.237900019,3.640599966,8.724599838,0.0634,-0.115800001,0.0495,3.231699944,2.548300028,8.981200218,0.066299997,0.021,-0.0273,-3.002300024,9.053899765,-1.551399946,-0.0735,-0.061699998,0.050999999,-3.002300024,9.053899765,-1.551399946,-0.0735,-0.061699998,0.050999999
-2.247499943,3.641799927,8.732899666,0.0284,-0.185800001,-0.003,3.233700037,2.558799982,8.984099388,-0.0177,0.035,0.014699999,-3.000399828,9.057700157,-1.548499942,-0.185499996,0.0363,-0.116999999,-3.000399828,9.057700157,-1.548499942,-0.185499996,0.0363,-0.116999999
-2.231899977,3.647799969,8.725799561,-0.0241,-0.133299991,0.0495,3.242300034,2.549299955,8.98029995,-0.0177,0.048999999,0.0427,-2.996599913,9.060299873,-1.550899982,-0.160999998,0.148299992,-0.20449999,-2.996599913,9.060299873,-1.550899982,-0.160999998,0.148299992,-0.20449999
-2.24029994,3.647799969,8.715000153,0.0284,-0.115800001,-0.020499999,3.227900028,2.541599989,8.996500015,0.0383,-0.048999999,0.0007,-3.015699863,9.055500031,-1.552099943,-0.213499993,0.3583,-0.256999999,-3.015699863,9.055500031,-1.552099943,-0.213499993,0.3583,-0.256999999
-2.227099895,3.642999887,8.718599319,0.080899999,-0.133299991,0.119499996,3.228899956,2.547399998,8.984099388,0.0383,-0.021,-0.0273,-3.021699905,9.057899475,-1.542500019,-0.283499986,0.253299981,-0.186999992,-3.021699905,9.057899475,-1.542500019,-0.283499986,0.253299981,-0.186999992
-2.236700058,3.636999846,8.715000153,-0.0066,-0.0458,-0.055499997,3.231699944,2.549299955,8.978300095,0.192299992,0.021,-0.0133,-3.044399977,9.05189991,-1.541799903,-0.24149999,0.260299981,-0.144999996,-3.044399977,9.05189991,-1.541799903,-0.24149999,0.260299981,-0.144999996
-2.231899977,3.634599924,8.723400116,0.080899999,-0.0458,0.031999998,3.243199825,2.546399832,8.978300095,0.0243,0.048999999,-0.0133,-3.030099869,9.04529953,-1.537999988,-0.1435,0.120299995,-0.256999999,-3.030099869,9.04529953,-1.537999988,-0.1435,0.120299995,-0.256999999
-2.239099979,3.631099939,8.734099388,-0.0416,0.0592,-0.020499999,3.233700037,2.553999901,8.986000061,0.0103,-0.021,-0.0133,-3.028899908,9.043600082,-1.541299939,-0.213499993,0.2183,-0.116999999,-3.028899908,9.043600082,-1.541299939,-0.213499993,0.2183,-0.116999999
-2.233099937,3.634599924,8.728199959,-0.0241,0.0242,0.0495,3.235599995,2.548300028,8.984099388,0.066299997,-0.063000001,-0.0133,-3.028899908,9.047200203,-1.538900018,-0.178499997,0.078299999,-0.116999999,-3.028899908,9.047200203,-1.538900018,-0.178499997,0.078299999,-0.116999999
-2.237900019,3.639400005,8.725799561,-0.0066,-0.0458,0.0145,3.241299868,2.553999901,8.986000061,0.0103,-0.090999998,-0.0133,-3.016899824,9.05189991,-1.542500019,-0.1435,0.3583,-0.064499997,-3.016899824,9.05189991,-1.542500019,-0.1435,0.3583,-0.064499997
-2.24029994,3.645399809,8.715000153,-0.0766,0.0242,0.0495,3.238399982,2.558799982,8.986999512,0.066299997,-0.063000001,-0.0133,-3.02429986,9.046199799,-1.535099983,-0.353499979,0.498299986,-0.116999999,-3.02429986,9.046199799,-1.535099983,-0.353499979,0.498299986,-0.116999999
-2.241499901,3.638199806,8.725799561,-0.0416,-0.080799997,0.0495,3.236500025,2.552099943,8.990799904,-0.12969999,-0.007,0.0007,-3.042500019,9.054800034,-1.511199951,-0.269499987,0.540300012,-0.018999999,-3.042500019,9.054800034,-1.511199951,-0.269499987,0.540300012,-0.018999999
-2.239099979,3.635799885,8.717399597,-0.0766,-0.0458,0.189499989,3.23939991,2.552099943,8.991700172,0.066299997,0.021,0.056699999,-3.061100006,9.043600082,-1.520999908,-0.0735,0.200800002,0.1105,-3.061100006,9.043600082,-1.520999908,-0.0735,0.200800002,0.1105
-2.239099979,3.635799885,8.716199875,0.0634,-0.080799997,0.031999998,3.235599995,2.557899952,8.9897995,-0.045699999,0.090999998,-0.0133,-3.043200016,9.05079937,-1.530599952,0.031500001,-0.096699998,0.023,-3.043200016,9.05079937,-1.530599952,0.031500001,-0.096699998,0.023
-2.231899977,3.644199848,8.729299545,0.0109,-0.098299995,0.0495,3.243199825,2.544499874,8.990799904,-0.143700004,0.118999995,0.056699999,-3.022399902,9.061499596,-1.544699907,-0.045499999,-0.0337,0.107000001,-3.022399902,9.061499596,-1.544699907,-0.045499999,-0.0337,0.107000001
-2.25819993,3.634599924,8.72219944,0.0284,-0.185800001,0.067000002,3.233700037,2.544499874,8.986000061,-0.115699999,0.048999999,-0.0133,-3.029099941,9.048099518,-1.534099936,-0.0175,0.022299999,0.218999997,-3.029099941,9.048099518,-1.534099936,-0.0175,0.022299999,0.218999997
-2.236700058,3.640599966,8.725799561,-0.094099998,-0.325800002,0.136999995,3.234599829,2.546399832,8.988900185,-0.073699996,0.077,-0.0133,-3.043200016,9.05189991,-1.528199911,0.031500001,-0.061699998,0.180500001,-3.043200016,9.05189991,-1.528199911,0.031500001,-0.061699998,0.180500001
-2.230999947,3.641799927,8.724999428,-0.167599991,-0.311800003,-0.020499999,3.236500025,2.546399832,8.983099937,-0.073699996,0.160999998,0.056699999,-3.015699863,9.061499596,-1.54610002,0.048999999,-0.0792,0.215499997,-3.015699863,9.061499596,-1.54610002,0.048999999,-0.0792,0.215499997
-2.232899904,3.634199858,8.728899956,-0.18159999,-0.213799998,0.119499996,3.24029994,2.547399998,8.98029995,-0.073699996,0.104999997,0.014699999,-3.013299942,9.045999527,-1.54369998,-0.0035,-0.061699998,0.232999995,-3.013299942,9.045999527,-1.54369998,-0.0035,-0.061699998,0.232999995
-2.236700058,3.639899969,8.723099709,-0.139599994,-0.129799992,0.0495,3.244199991,2.542599916,8.988900185,-0.0037,0.048999999,-0.0133,-3.027199984,9.052899361,-1.539899945,0.108499996,0.050299998,0.232999995,-3.027199984,9.052899361,-1.539899945,0.108499996,0.050299998,0.232999995
-2.230999947,3.6322999,8.729800224,-0.111599997,-0.115800001,0.035499997,3.234599829,2.548300028,8.978300095,0.0243,0.048999999,0.0427,-3.021499872,9.050000191,-1.532199979,-0.031500001,0.0083,0.177000001,-3.021499872,9.050000191,-1.532199979,-0.031500001,0.0083,0.177000001
-2.232899904,3.636999846,8.728899956,-0.125599995,-0.031799998,0.119499996,3.249899864,2.547399998,8.976399422,-0.059699997,-0.021,-0.0133,-3.012099981,9.043600082,-1.535300016,0.031500001,0.043299999,0.163000003,-3.012099981,9.043600082,-1.535300016,0.031500001,0.043299999,0.163000003
-2.234799862,3.638000011,8.724100113,0.0144,0.0242,0.119499996,3.229799986,2.550199986,8.986000061,-0.0037,0.077,0.0287,-3.018100023,9.059100151,-1.538900018,0.048999999,0.16579999,0.215499997,-3.018100023,9.059100151,-1.538900018,0.048999999,0.16579999,0.215499997
-2.241499901,3.638899803,8.720299721,-0.153599992,0.0242,0.0495,3.241299868,2.553099871,8.986999512,0.066299997,0.048999999,-0.0133,-3.019299984,9.047200203,-1.542500019,0.031500001,0.323300004,0.163000003,-3.019299984,9.047200203,-1.542500019,0.031500001,0.323300004,0.163000003
-2.228100061,3.641799927,8.721199989,-0.0836,0.0942,0.189499989,3.243199825,2.540699959,8.990799904,0.0383,0.118999995,0.056699999,-3.044399977,9.050999641,-1.527499914,0.024499999,0.274299979,0.289000005,-3.044399977,9.050999641,-1.527499914,0.024499999,0.274299979,0.289000005
-2.224299908,3.638899803,8.727000237,-0.0416,0.0242,0.133499995,3.236500025,2.547399998,8.984099388,0.052299999,0.118999995,0.0287,-3.05009985,9.050000191,-1.562799931,-0.0735,0.400299996,0.303000003,-3.05009985,9.050000191,-1.562799931,-0.0735,0.400299996,0.303000003
-2.241499901,3.635099888,8.738399506,0.0004,-0.0458,0.189499989,3.230799913,2.547399998,8.990799904,0.0243,0.118999995,-0.0133,-3.025300026,9.059100151,-1.54369998,-0.0735,0.41079998,0.372999996,-3.025300026,9.059100151,-1.54369998,-0.0735,0.41079998,0.372999996
-2.233799934,3.638899803,8.729800224,0.0284,0.0242,0.147499993,3.236500025,2.554999828,8.992699623,-0.0177,0.118999995,-0.0133,-3.043200016,9.041199684,-1.52459991,-0.055999998,0.270799994,0.355499983,-3.043200016,9.041199684,-1.52459991,-0.055999998,0.270799994,0.355499983
-2.245300055,3.636099815,8.733699799,0.042399999,-0.0178,0.189499989,3.237499952,2.549299955,8.986999512,-0.059699997,0.118999995,-0.069299996,-3.03579998,9.056699753,-1.538900018,0.136500001,-0.0757,0.442999989,-3.03579998,9.056699753,-1.538900018,0.136500001,-0.0757,0.442999989
-2.239599943,3.640899897,8.724999428,-0.069600001,-0.185800001,0.119499996,3.23939991,2.547399998,8.977399826,-0.059699997,0.063000001,-0.0133,-3.001399994,9.065299988,-1.557999969,0.052499998,0.148299992,0.484999985,-3.001399994,9.065299988,-1.557999969,0.052499998,0.148299992,0.484999985
-2.237699986,3.631299973,8.716400146,-0.0276,-0.059799999,0.189499989,3.238399982,2.548300028,8.983099937,-0.073699996,0.048999999,-0.0133,-3.015699863,9.055500031,-1.548499942,-0.108499996,0.2183,0.372999996,-3.015699863,9.055500031,-1.548499942,-0.108499996,0.2183,0.372999996
-2.239599943,3.638000011,8.733699799,-0.111599997,-0.0458,0.189499989,3.23939991,2.540699959,8.991700172,-0.1017,0.118999995,-0.0133,-3.037199974,9.05079937,-1.534099936,-0.0035,0.0083,0.338,-3.037199974,9.05079937,-1.534099936,-0.0035,0.0083,0.338
-2.236700058,3.639400005,8.724599838,-0.111599997,-0.0458,0.119499996,3.229799986,2.536799908,8.9897995,-0.073699996,0.048999999,-0.041299999,-3.022899866,9.044799805,-1.54489994,0.066500001,-0.254199982,0.28549999,-3.022899866,9.044799805,-1.54489994,0.066500001,-0.254199982,0.28549999
-2.231899977,3.640599966,8.727000237,-0.111599997,-0.0458,0.171999991,3.237499952,2.552099943,8.992699623,-0.045699999,0.063000001,-0.069299996,-3.001399994,9.063399315,-1.545599937,0.024499999,-0.159699991,0.232999995,-3.001399994,9.063399315,-1.545599937,0.024499999,-0.159699991,0.232999995
-2.227099895,3.640599966,8.730500221,-0.094099998,0.076699995,0.171999991,3.230799913,2.549299955,8.991700172,-0.059699997,0.174999997,-0.0133,-2.99759984,9.059599876,-1.548499942,0.122499995,0.0083,0.232999995,-2.99759984,9.059599876,-1.548499942,0.122499995,0.0083,0.232999995
-2.228299856,3.6322999,8.732899666,-0.0066,0.0942,0.119499996,3.229799986,2.544499874,8.984099388,-0.115699999,0.021,0.0287,-3.002599955,9.053099632,-1.52699995,-0.055999998,0.0083,0.215499997,-3.002599955,9.053099632,-1.52699995,-0.055999998,0.0083,0.215499997
-2.228299856,3.639400005,8.724599838,-0.0416,0.146699995,0.0145,3.230799913,2.546399832,8.995599747,-0.073699996,0.048999999,-0.069299996,-3.006199837,9.043600082,-1.518599987,0.136500001,0.043299999,0.163000003,-3.006199837,9.043600082,-1.518599987,0.136500001,0.043299999,0.163000003
-2.230700016,3.640599966,8.730500221,0.045899998,0.111699998,0.0495,3.244199991,2.544499874,8.9897995,-0.045699999,0.118999995,-0.0133,-3.012899876,9.053899765,-1.518899918,0.276499987,-0.0337,0.092999995,-3.012899876,9.053899765,-1.518899918,0.276499987,-0.0337,0.092999995
-2.234299898,3.638199806,8.730500221,0.16839999,0.0942,0.0845,3.230799913,2.543499947,8.990799904,-0.073699996,0.048999999,-0.0273,-3.008100033,9.053899765,-1.507399917,0.066500001,-0.0197,0.092999995,-3.008100033,9.053899765,-1.507399917,0.066500001,-0.0197,0.092999995
-2.217599869,3.639400005,8.734099388,0.098399997,-0.098299995,0.119499996,3.229799986,2.547399998,8.995599747,-0.073699996,0.048999999,-0.055299997,-3.009699821,9.057899475,-1.523399949,0.311499983,-0.271699995,0.092999995,-3.009699821,9.057899475,-1.523399949,0.311499983,-0.271699995,0.092999995
-2.234299898,3.631099939,8.72219944,0.0634,0.041699998,0.031999998,3.225999832,2.548300028,8.994599342,-0.073699996,0.077,-0.0133,-2.981099844,9.062699318,-1.548499942,0.381499976,-0.201700002,0.0055,-2.981099844,9.062699318,-1.548499942,0.381499976,-0.201700002,0.0055
-2.239099979,3.642999887,8.729299545,0.115899995,0.0242,0.0145,3.241299868,2.545399904,8.993599892,0.066299997,-0.021,0.0007,-2.988199949,9.054299355,-1.537699938,0.171499997,-0.131699994,-0.064499997,-2.988199949,9.054299355,-1.537699938,0.171499997,-0.131699994,-0.064499997
-2.231899977,3.638199806,8.725799561,0.098399997,0.041699998,0.0495,3.24029994,2.549299955,8.994599342,0.136299998,-0.077,0.056699999,-2.995699883,9.071100235,-1.536999941,0.262499988,0.0083,-0.20099999,-2.995699883,9.071100235,-1.536999941,0.262499988,0.0083,-0.20099999
-2.235499859,3.636999846,8.730500221,0.098399997,0.0942,-0.107999995,3.233700037,2.540699959,8.991700172,0.20629999,-0.090999998,-0.0273,-3.005199909,9.054800034,-1.552299976,0.136500001,0.134299994,-0.144999996,-3.005199909,9.054800034,-1.552299976,0.136500001,0.134299994,-0.144999996
-2.248600006,3.641799927,8.729299545,0.045899998,0.041699998,0.0495,3.241299868,2.548300028,8.992699623,0.1083,-0.007,-0.0273,-3.015699863,9.05189991,-1.553299904,-0.0035,0.323300004,-0.186999992,-3.015699863,9.05189991,-1.553299904,-0.0035,0.323300004,-0.186999992
-2.235499859,3.641799927,8.725799561,0.098399997,-0.273299992,-0.020499999,3.243199825,2.550199986,8.986000061,0.066299997,-0.090999998,0.0007,-3.021699905,9.061499596,-1.536499977,0.136500001,0.2183,-0.221999988,-3.021699905,9.061499596,-1.536499977,0.136500001,0.2183,-0.221999988
-2.242699862,3.626299858,8.720999718,-0.059099998,-0.115800001,-0.003,3.230799913,2.545399904,8.992699623,0.164299995,0.048999999,0.014699999,-3.024099827,9.043600082,-1.54369998,0.136500001,0.113299996,-0.134499997,-3.024099827,9.043600082,-1.54369998,0.136500001,0.113299996,-0.134499997
-2.229500055,3.638199806,8.727000237,0.133399993,-0.168300003,-0.055499997,3.231699944,2.547399998,8.986000061,0.20629999,-0.174999997,-0.041299999,-3.020499945,9.046199799,-1.545599937,0.164499998,0.050299998,-0.256999999,-3.020499945,9.046199799,-1.545599937,0.164499998,0.050299998,-0.256999999
-2.233099937,3.644199848,8.727000237,-0.0241,-0.080799997,-0.020499999,3.233199835,2.539000034,8.986199379,0.136299998,-0.213499993,-0.048299998,-3.020499945,9.050999641,-1.550400019,0.066500001,0.0083,-0.186999992,-3.020499945,9.050999641,-1.550400019,0.066500001,0.0083,-0.186999992
-2.239099979,3.635799885,8.728199959,0.133399993,0.0067,-0.072999999,3.24029994,2.546200037,8.995800018,0.136299998,-0.090999998,-0.0308,-3.015699863,9.066299438,-1.547299981,-0.0035,-0.026699999,-0.186999992,-3.015699863,9.066299438,-1.547299981,-0.0035,-0.026699999,-0.186999992
-2.234299898,3.633399963,8.732899666,0.045899998,-0.115800001,-0.037999999,3.239199877,2.549700022,8.984999657,0.2588,-0.230999991,-0.083299994,-3.020499945,9.043600082,-1.552099943,-0.1435,0.0083,-0.20449999,-3.020499945,9.043600082,-1.552099943,-0.1435,0.0083,-0.20449999
-2.232899904,3.6322999,8.727899551,0.112399995,-0.115800001,-0.090499997,3.242699862,2.547399998,8.983799934,0.293799996,-0.24849999,-0.0308,-3.005199909,9.05189991,-1.559000015,-0.1435,0.092299998,-0.326999992,-3.005199909,9.05189991,-1.559000015,-0.1435,0.092299998,-0.326999992
-2.247200012,3.636999846,8.736499786,0.182399988,-0.101799995,-0.020499999,3.231999874,2.546200037,8.981499672,0.241299987,-0.230999991,-0.0133,-3.001399994,9.050999641,-1.553299904,-0.185499996,0.232299998,-0.354999989,-3.001399994,9.050999641,-1.553299904,-0.185499996,0.232299998,-0.354999989
-2.224299908,3.635099888,8.729800224,0.16839999,-0.171800002,-0.16049999,3.233199835,2.549700022,8.995800018,0.101300001,-0.230999991,-0.083299994,-2.996599913,9.062699318,-1.548499942,-0.230999991,0.375799984,-0.396999985,-2.996599913,9.062699318,-1.548499942,-0.230999991,0.375799984,-0.396999985
-2.235699892,3.636999846,8.735599518,0.2104,-0.171800002,-0.090499997,3.248699903,2.546200037,8.987400055,0.136299998,-0.090999998,-0.083299994,-3.009699821,9.062699318,-1.542500019,-0.300999999,0.428299993,-0.396999985,-3.009699821,9.062699318,-1.542500019,-0.300999999,0.428299993,-0.396999985
-2.228100061,3.644699812,8.727899551,0.182399988,-0.0458,-0.104499996,3.24029994,2.547399998,8.984999657,0.101300001,-0.108499996,0.056699999,-3.024099827,9.061499596,-1.52459991,-0.300999999,0.305799991,-0.537,-3.024099827,9.061499596,-1.52459991,-0.300999999,0.305799991,-0.537
-2.230999947,3.645599842,8.72219944,0.224399999,-0.0038,-0.104499996,3.239199877,2.554499865,8.99339962,0.118799999,-0.1435,-0.083299994,-3.044399977,9.048099518,-1.531299949,-0.213499993,0.120299995,-0.452999979,-3.044399977,9.048099518,-1.531299949,-0.213499993,0.120299995,-0.452999979
-2.228100061,3.645599842,8.717399597,0.182399988,-0.0458,-0.090499997,3.24029994,2.554499865,8.991000175,0.066299997,-0.126000002,-0.048299998,-3.05009985,9.047200203,-1.54279995,-0.171499997,-0.187699988,-0.523000002,-3.05009985,9.047200203,-1.54279995,-0.171499997,-0.187699988,-0.523000002
-2.233799934,3.636999846,8.727000237,0.2104,-0.0458,-0.020499999,3.230799913,2.542599916,8.987400055,0.048799999,-0.0735,-0.0133,-3.025300026,9.059100151,-1.549699903,-0.055999998,-0.341699988,-0.449499995,-3.025300026,9.059100151,-1.549699903,-0.055999998,-0.341699988,-0.449499995
-2.231899977,3.636999846,8.723099709,0.084399998,0.0242,-0.118499994,3.242699862,2.543799877,8.999400139,-0.0037,-0.055999998,-0.0308,-3.013299942,9.060299873,-1.538900018,-0.108499996,-0.271699995,-0.379500002,-3.013299942,9.060299873,-1.538900018,-0.108499996,-0.271699995,-0.379500002
-2.239599943,3.641799927,8.727899551,0.0284,0.19219999,-0.020499999,3.237999916,2.560499907,8.981499672,0.083799995,-0.178499997,-0.0308,-3.018100023,9.044799805,-1.538900018,-0.108499996,-0.236699998,-0.396999985,-3.018100023,9.044799805,-1.538900018,-0.108499996,-0.236699998,-0.396999985
-2.235699892,3.645599842,8.727000237,0.0284,0.0942,-0.0065,3.233199835,2.559299946,8.994599342,-0.073699996,-0.126000002,-0.0133,-3.012899876,9.052899361,-1.544699907,-0.213499993,-0.0757,-0.396999985,-3.012899876,9.052899361,-1.544699907,-0.213499993,-0.0757,-0.396999985
-2.236700058,3.631299973,8.72219944,0.16839999,0.0942,-0.020499999,3.235599995,2.554499865,8.987400055,-0.0037,-0.160999998,-0.0133,-3.021499872,9.059599876,-1.545599937,-0.213499993,0.106299996,-0.396999985,-3.021499872,9.059599876,-1.545599937,-0.213499993,0.106299996,-0.396999985
-2.237699986,3.636999846,8.723099709,0.084399998,0.122199997,-0.020499999,3.24029994,2.547399998,8.979100227,-0.0037,-0.090999998,0.0042,-3.025300026,9.044799805,-1.530599952,-0.335999995,0.148299992,-0.431999981,-3.025300026,9.044799805,-1.530599952,-0.335999995,0.148299992,-0.431999981
-2.230000019,3.645599842,8.727000237,-0.0416,0.080200002,0.0495,3.241499901,2.552099943,8.986199379,-0.0037,-0.090999998,-0.0133,-3.032500029,9.053099632,-1.52699995,-0.230999991,0.148299992,-0.414499998,-3.032500029,9.053099632,-1.52699995,-0.230999991,0.148299992,-0.414499998
-2.227099895,3.639899969,8.735599518,-0.0416,0.052199997,-0.0065,3.234400034,2.552099943,8.986199379,0.031300001,-0.090999998,0.056699999,-3.041499853,9.054800034,-1.516899943,-0.171499997,0.022299999,-0.382999986,-3.041499853,9.054800034,-1.516899943,-0.171499997,0.022299999,-0.382999986
-2.233799934,3.642799854,8.731699944,0.042399999,0.066199996,0.035499997,3.248699903,2.554499865,8.986199379,0.066299997,-0.090999998,0.0042,-3.053999901,9.046199799,-1.520799994,-0.101499997,-0.0057,-0.270999998,-3.053999901,9.046199799,-1.520799994,-0.101499997,-0.0057,-0.270999998
-2.234299898,3.640599966,8.731699944,0.0284,-0.0458,0.101999998,3.246299982,2.547399998,8.984999657,0.136299998,-0.0735,0.0392,-3.058699846,9.043600082,-1.52459991,-0.0035,-0.236699998,-0.326999992,-3.058699846,9.043600082,-1.52459991,-0.0035,-0.236699998,-0.326999992
-2.231899977,3.641799927,8.723400116,0.16839999,-0.0458,0.0145,3.246299982,2.552099943,8.981499672,0.066299997,-0.0035,-0.0133,-3.040799856,9.05189991,-1.520999908,0.014,-0.341699988,-0.221999988,-3.040799856,9.05189991,-1.520999908,0.014,-0.341699988,-0.221999988
-2.236700058,3.631099939,8.729299545,0.133399993,-0.0458,-0.090499997,3.24029994,2.549700022,8.984999657,0.048799999,0.031500001,0.056699999,-3.046799898,9.03880024,-1.532999992,-0.0035,-0.341699988,-0.239500001,-3.046799898,9.03880024,-1.532999992,-0.0035,-0.341699988,-0.239500001
-2.229500055,3.644199848,8.72219944,0.220899999,-0.098299995,-0.090499997,3.239199877,2.550899982,8.982699394,-0.0037,-0.0035,0.0392,-3.041499853,9.052899361,-1.541799903,0.1505,-0.41169998,-0.186999992,-3.041499853,9.052899361,-1.541799903,0.1505,-0.41169998,-0.186999992
-2.242699862,3.641799927,8.735300064,0.115899995,-0.0458,-0.037999999,3.242699862,2.552099943,8.984999657,-0.0037,-0.021,-0.0133,-3.031999826,9.05189991,-1.550400019,-0.0035,-0.341699988,-0.116999999,-3.031999826,9.05189991,-1.550400019,-0.0035,-0.341699988,-0.116999999
-2.241499901,3.642999887,8.732899666,0.0284,-0.098299995,0.0495,3.241499901,2.550899982,8.981499672,-0.0037,0.014,0.056699999,-3.026499987,9.054299355,-1.547299981,-0.0035,-0.2192,-0.186999992,-3.026499987,9.054299355,-1.547299981,-0.0035,-0.2192,-0.186999992
-2.250999928,3.639400005,8.730500221,-0.0416,-0.080799997,0.101999998,3.24029994,2.550899982,8.984999657,-0.1087,-0.160999998,0.021699999,-3.045599937,9.041199684,-1.531799912,0.048999999,-0.271699995,-0.081999995,-3.045599937,9.041199684,-1.531799912,0.048999999,-0.271699995,-0.081999995
-2.235499859,3.647799969,8.728199959,-0.0066,-0.203299999,-0.020499999,3.248699903,2.546200037,8.983799934,-0.021199999,-0.021,-0.0133,-3.03579998,9.041399956,-1.531299949,-0.0035,-0.327699989,-0.074999996,-3.03579998,9.041399956,-1.531299949,-0.0035,-0.327699989,-0.074999996
-2.227099895,3.647799969,8.723400116,0.0284,-0.185800001,0.0145,3.239199877,2.550899982,8.983799934,-0.073699996,-0.090999998,-0.0133,-3.027199984,9.058599472,-1.531299949,-0.031500001,-0.215700001,-0.144999996,-3.027199984,9.058599472,-1.531299949,-0.031500001,-0.215700001,-0.144999996
-2.239099979,3.636999846,8.727000237,0.098399997,-0.168300003,-0.020499999,3.242699862,2.550899982,8.991000175,-0.038699999,-0.0735,-0.0133,-3.021699905,9.054299355,-1.512599945,-0.0035,-0.201700002,-0.291999996,-3.021699905,9.054299355,-1.512599945,-0.0035,-0.201700002,-0.291999996
-2.231899977,3.648999929,8.728199959,-0.0416,-0.0458,-0.020499999,3.24029994,2.550899982,8.9897995,-0.021199999,-0.090999998,0.0042,-3.019299984,9.049599648,-1.522199988,0.206499994,-0.271699995,-0.256999999,-3.019299984,9.049599648,-1.522199988,0.206499994,-0.271699995,-0.256999999
-2.237900019,3.633399963,8.72219944,-0.094099998,-0.080799997,-0.090499997,3.252300024,2.553299904,8.994599342,0.048799999,-0.0035,0.021699999,-3.033599854,9.047200203,-1.534099936,0.136500001,-0.359200001,-0.221999988,-3.033599854,9.047200203,-1.534099936,0.136500001,-0.359200001,-0.221999988
-2.228299856,3.639400005,8.734099388,-0.0416,0.0242,0.031999998,3.243899822,2.548499823,8.991000175,-0.0037,0.014,0.056699999,-3.039599895,9.039500237,-1.535099983,0.080499999,-0.41169998,-0.186999992,-3.039599895,9.039500237,-1.535099983,0.080499999,-0.41169998,-0.186999992
-2.228299856,3.641799927,8.723400116,0.080899999,-0.063299999,-0.020499999,3.245100021,2.556900024,8.994599342,-0.091199994,0.014,0.056699999,-3.037699938,9.055799484,-1.546599984,0.080499999,-0.257699996,-0.228999987,-3.037699938,9.055799484,-1.546599984,0.080499999,-0.257699996,-0.228999987
-2.230700016,3.644199848,8.728199959,0.098399997,-0.0458,-0.055499997,3.234400034,2.548499823,8.995800018,-0.073699996,-0.021,-0.065799996,-3.037199974,9.05189991,-1.54610002,-0.0035,-0.0092,-0.046999998,-3.037199974,9.05189991,-1.54610002,-0.0035,-0.0092,-0.046999998
-2.233099937,3.642999887,8.725799561,0.150899991,-0.010799999,-0.020499999,3.243899822,2.535399914,8.983799934,-0.038699999,0.014,-0.0133,-3.028899908,9.05079937,-1.54489994,-0.0035,0.130799994,-0.151999995,-3.028899908,9.05079937,-1.54489994,-0.0035,0.130799994,-0.151999995
-2.231899977,3.645399809,8.719799995,0.150899991,-0.0458,-0.020499999,3.234400034,2.547399998,8.991000175,-0.0037,-0.0385,0.056699999,-3.018100023,9.054299355,-1.528199911,-0.0735,0.148299992,-0.186999992,-3.018100023,9.054299355,-1.528199911,-0.0735,0.148299992,-0.186999992
-2.235499859,3.642999887,8.720999718,0.0284,-0.010799999,-0.020499999,3.24029994,2.555699825,8.991000175,-0.0037,-0.021,0.0042,-3.027199984,9.049099922,-1.541799903,-0.059499998,0.2183,-0.186999992,-3.027199984,9.049099922,-1.541799903,-0.059499998,0.2183,-0.186999992
-2.245100021,3.642999887,8.728199959,0.0284,0.0592,-0.003,3.234400034,2.547399998,8.988599777,-0.073699996,-0.090999998,0.056699999,-3.045399904,9.040499687,-1.531299949,0.052499998,0.078299999,-0.256999999,-3.045399904,9.040499687,-1.531299949,0.052499998,0.078299999,-0.256999999
-2.236700058,3.641799927,8.734600067,0.0284,0.052199997,-0.0065,3.231999874,2.546200037,8.987400055,-0.143700004,-0.0385,-0.0133,-3.047999859,9.041199684,-1.536499977,-0.0035,-0.0792,-0.186999992,-3.047999859,9.041199684,-1.536499977,-0.0035,-0.0792,-0.186999992
-2.229099989,3.644699812,8.724100113,-0.0276,0.052199997,-0.0625,3.234400034,2.552099943,8.977899551,0.066299997,-0.108499996,0.021699999,-3.041999817,9.043600082,-1.540099978,-0.0035,-0.271699995,-0.256999999,-3.041999817,9.043600082,-1.540099978,-0.0035,-0.271699995,-0.256999999
-2.236700058,3.638899803,8.723099709,0.0144,0.0242,0.0495,3.246299982,2.555699825,8.992199898,0.136299998,-0.055999998,0.056699999,-3.031999826,9.058599472,-1.541799903,0.0105,-0.243699998,-0.256999999,-3.031999826,9.058599472,-1.541799903,0.0105,-0.243699998,-0.256999999
-2.235699892,3.641799927,8.719299316,0.0004,0.136199996,-0.048499998,3.236799955,2.548499823,8.987400055,0.066299997,-0.090999998,0.0042,-3.018599987,9.056699753,-1.541799903,-0.0735,-0.061699998,-0.326999992,-3.018599987,9.056699753,-1.541799903,-0.0735,-0.061699998,-0.326999992
-2.236700058,3.636999846,8.728899956,0.0704,0.0242,-0.020499999,3.239199877,2.544999838,8.988599777,0.136299998,-0.090999998,-0.0133,-3.033599854,9.049599648,-1.542500019,-0.195999995,0.130799994,-0.361999989,-3.033599854,9.049599648,-1.542500019,-0.195999995,0.130799994,-0.361999989
-2.242399931,3.646600008,8.727000237,0.154399991,-0.0038,-0.076499999,3.243899822,2.556900024,8.996999741,-0.0037,-0.055999998,0.021699999,-3.038399935,9.037599564,-1.529399991,-0.160999998,0.3583,-0.396999985,-3.038399935,9.037599564,-1.529399991,-0.160999998,0.3583,-0.396999985
-2.243399858,3.639899969,8.727000237,0.042399999,0.122199997,-0.020499999,3.235599995,2.546200037,8.986199379,-0.0037,0.031500001,-0.0133,-3.030099869,9.043600082,-1.519799948,-0.213499993,0.305799991,-0.344500005,-3.030099869,9.043600082,-1.519799948,-0.213499993,0.305799991,-0.344500005
-2.245300055,3.644699812,8.729800224,0.0284,-0.0458,-0.020499999,3.245100021,2.552099943,8.982699394,0.0138,0.014,-0.0133,-3.04919982,9.047200203,-1.531299949,-0.1435,0.3583,-0.256999999,-3.04919982,9.047200203,-1.531299949,-0.1435,0.3583,-0.256999999
-2.235699892,3.645599842,8.731699944,0.154399991,0.0242,-0.020499999,3.243899822,2.536599874,8.98029995,-0.073699996,-0.021,-0.0133,-3.06159997,9.040499687,-1.52549994,-0.129500002,0.120299995,-0.20099999,-3.06159997,9.040499687,-1.52549994,-0.129500002,0.120299995,-0.20099999
-2.242399931,3.639899969,8.724999428,0.126399994,0.010199999,-0.020499999,3.242699862,2.541399956,8.982699394,-0.073699996,0.048999999,0.021699999,-3.068300009,9.045999527,-1.516199946,0.066500001,-0.201700002,-0.221999988,-3.068300009,9.045999527,-1.516199946,0.066500001,-0.201700002,-0.221999988
-2.227099895,3.6474998,8.72219944,0.056399997,0.0242,0.091499999,3.236799955,2.550899982,8.984999657,-0.021199999,0.048999999,-0.0133,-3.037199974,9.037599564,-1.523399949,0.066500001,-0.41169998,-0.151999995,-3.037199974,9.037599564,-1.523399949,0.066500001,-0.41169998,-0.151999995
-2.230999947,3.642799854,8.727899551,0.098399997,-0.115800001,-0.090499997,3.247499943,2.553299904,8.9897995,-0.021199999,-0.021,0.0392,-3.032500029,9.043600082,-1.534099936,0.014,-0.306699991,-0.116999999,-3.032500029,9.043600082,-1.534099936,0.014,-0.306699991,-0.116999999
-2.243399858,3.651399851,8.727899551,0.098399997,-0.073799998,-0.020499999,3.235599995,2.555699825,8.984999657,0.066299997,0.014,-0.0133,-3.028100014,9.042399406,-1.531299949,0.122499995,-0.17369999,-0.186999992,-3.028100014,9.042399406,-1.531299949,0.122499995,-0.17369999,-0.186999992
-2.232899904,3.641799927,8.727000237,-0.013599999,-0.0458,-0.020499999,3.237999916,2.549700022,8.984999657,-0.0037,-0.055999998,-0.065799996,-3.030099869,9.056699753,-1.536999941,0.1505,-0.0197,-0.158999994,-3.030099869,9.056699753,-1.536999941,0.1505,-0.0197,-0.158999994
-2.238600016,3.643699884,8.718400002,0.0144,-0.115800001,-0.076499999,3.239199877,2.552099943,8.992199898,0.066299997,-0.0735,-0.0133,-3.043200016,9.05189991,-1.536499977,0.118999995,0.043299999,-0.20449999,-3.043200016,9.05189991,-1.536499977,0.118999995,0.043299999,-0.20449999
-2.246299982,3.644199848,8.725799561,0.0284,-0.0458,-0.020499999,3.236799955,2.552099943,8.987400055,0.118799999,-0.0035,-0.0133,-3.059899807,9.042399406,-1.52699995,0.031500001,-0.0092,-0.326999992,-3.059899807,9.042399406,-1.52699995,0.031500001,-0.0092,-0.326999992
-2.236700058,3.633399963,8.723400116,-0.0766,-0.0458,-0.037999999,3.24029994,2.549700022,8.984999657,0.066299997,-0.021,-0.0133,-3.06159997,9.053899765,-1.520799994,0.066500001,-0.187699988,-0.228999987,-3.06159997,9.053899765,-1.520799994,0.066500001,-0.187699988,-0.228999987
-2.242699862,3.633399963,8.715000153,-0.0241,-0.0458,-0.055499997,3.24029994,2.558099985,8.994599342,0.223799989,-0.021,-0.0133,-3.056799889,9.044300079,-1.532199979,0.122499995,-0.299699992,-0.158999994,-3.056799889,9.044300079,-1.532199979,0.122499995,-0.299699992,-0.158999994
-2.227099895,3.648999929,8.712599754,0.0284,-0.273299992,-0.020499999,3.235599995,2.549700022,8.98029995,0.066299997,-0.1435,0.056699999,-3.04919982,9.035200119,-1.52579999,0.083999999,-0.341699988,-0.046999998,-3.04919982,9.035200119,-1.52579999,0.083999999,-0.341699988,-0.046999998
-2.233099937,3.648999929,8.72219944,0.045899998,-0.255799979,-0.020499999,3.251099825,2.556900024,8.982699394,0.066299997,0.014,0.0042,-3.043200016,9.047200203,-1.538900018,0.136500001,-0.324200004,-0.046999998,-3.043200016,9.047200203,-1.538900018,0.136500001,-0.324200004,-0.046999998
-2.235499859,3.638199806,8.723400116,-0.0416,-0.255799979,-0.072999999,3.242699862,2.560499907,8.984999657,-0.038699999,-0.0735,-0.0133,-3.033599854,9.036399841,-1.537699938,0.136500001,-0.271699995,-0.046999998,-3.033599854,9.036399841,-1.537699938,0.136500001,-0.271699995,-0.046999998
-2.228299856,3.641799927,8.725799561,-0.0416,-0.238299996,0.0495,3.243899822,2.552099943,8.991000175,-0.0037,-0.0035,-0.0133,-3.031999826,9.048099518,-1.534099936,0.206499994,-0.17369999,-0.158999994,-3.031999826,9.048099518,-1.534099936,0.206499994,-0.17369999,-0.158999994
-2.233099937,3.641799927,8.723400116,-0.111599997,-0.185800001,0.0495,3.233199835,2.547399998,8.983799934,-0.073699996,-0.021,-0.0133,-3.04919982,9.05189991,-1.537999988,0.024499999,-0.201700002,-0.130999997,-3.04919982,9.05189991,-1.537999988,0.024499999,-0.201700002,-0.130999997
-2.229500055,3.636999846,8.720999718,0.045899998,-0.115800001,-0.037999999,3.234400034,2.549700022,8.98029995,0.066299997,-0.0735,0.056699999,-3.057499886,9.033999443,-1.542500019,0.066500001,-0.096699998,-0.116999999,-3.057499886,9.033999443,-1.542500019,0.066500001,-0.096699998,-0.116999999
-2.234299898,3.6322999,8.732899666,0.0284,-0.115800001,-0.020499999,3.231999874,2.541399956,8.982699394,0.066299997,0.014,-0.083299994,-3.061100006,9.037599564,-1.530599952,0.066500001,-0.166699991,-0.046999998,-3.061100006,9.037599564,-1.530599952,0.066500001,-0.166699991,-0.046999998
-2.223599911,3.635799885,8.723400116,0.16839999,-0.063299999,-0.090499997,3.239199877,2.542599916,8.976699829,0.101300001,-0.0385,0.021699999,-3.048199892,9.040499687,-1.535099983,0.1505,-0.271699995,-0.018999999,-3.048199892,9.040499687,-1.535099983,0.1505,-0.271699995,-0.018999999
-2.229500055,3.635799885,8.725799561,0.238399997,-0.115800001,-0.16049999,3.235599995,2.558099985,8.984999657,-0.038699999,-0.090999998,0.056699999,-3.032899857,9.054800034,-1.54369998,0.136500001,-0.103699997,-0.060999997,-3.032899857,9.054800034,-1.54369998,0.136500001,-0.103699997,-0.060999997
-2.235499859,3.636999846,8.72219944,0.308400005,-0.220799997,-0.16049999,3.237999916,2.556900024,8.992199898,0.083799995,-0.0735,0.0392,-3.038399935,9.048399925,-1.549699903,0.031500001,0.025799999,-0.046999998,-3.038399935,9.048399925,-1.549699903,0.031500001,0.025799999,-0.046999998
-2.234299898,3.646600008,8.720999718,0.308400005,-0.115800001,-0.230499998,3.239199877,2.554499865,8.987400055,0.066299997,-0.021,-0.0133,-3.039599895,9.044799805,-1.52579999,0.066500001,0.0083,-0.186999992,-3.039599895,9.044799805,-1.52579999,0.066500001,0.0083,-0.186999992
-2.236700058,3.644199848,8.719799995,0.360899985,-0.15079999,-0.16049999,3.235599995,2.549700022,8.987400055,0.031300001,-0.160999998,-0.0133,-3.04919982,9.035200119,-1.523399949,0.136500001,-0.026699999,-0.186999992,-3.04919982,9.035200119,-1.523399949,0.136500001,-0.026699999,-0.186999992
-2.248600006,3.645399809,8.723400116,0.203400001,-0.028299998,-0.230499998,3.234400034,2.552099943,8.981499672,0.083799995,-0.021,0.0392,-3.047299862,9.042399406,-1.529399991,0.066500001,-0.187699988,-0.158999994,-3.047299862,9.042399406,-1.529399991,0.066500001,-0.187699988,-0.158999994
-2.242699862,3.645399809,8.72219944,0.273399979,-0.185800001,-0.037999999,3.230799913,2.554499865,8.984999657,0.118799999,0.031500001,0.056699999,-3.056799889,9.047200203,-1.518899918,0.066500001,-0.201700002,-0.144999996,-3.056799889,9.047200203,-1.518899918,0.066500001,-0.201700002,-0.144999996
-2.236700058,3.641799927,8.716199875,0.0109,-0.098299995,-0.090499997,3.237999916,2.543799877,8.987400055,0.0138,0.048999999,0.056699999,-3.046799898,9.048399925,-1.52579999,0.048999999,-0.201700002,-0.116999999,-3.046799898,9.048399925,-1.52579999,0.048999999,-0.201700002,-0.116999999
-2.236700058,3.641799927,8.725799561,0.098399997,-0.028299998,0.0495,3.252300024,2.542599916,8.983799934,0.136299998,-0.021,0.0392,-3.046799898,9.05079937,-1.523399949,0.188999996,-0.271699995,-0.151999995,-3.046799898,9.05079937,-1.523399949,0.188999996,-0.271699995,-0.151999995
-2.231899977,3.638899803,8.727899551,0.126399994,0.0242,0.0495,3.24029994,2.548499823,8.987400055,0.066299997,-0.021,0.074199997,-3.038399935,9.045999527,-1.52459991,0.066500001,-0.271699995,-0.186999992,-3.038399935,9.045999527,-1.52459991,0.066500001,-0.271699995,-0.186999992
-2.236700058,3.636999846,8.727000237,0.0284,-0.031799998,-0.034499999,3.246299982,2.554499865,8.987400055,0.136299998,-0.055999998,0.021699999,-3.037699938,9.059599876,-1.536999941,0.108499996,-0.159699991,-0.20099999,-3.037699938,9.059599876,-1.536999941,0.108499996,-0.159699991,-0.20099999
-2.233799934,3.645599842,8.727899551,0.098399997,0.0242,-0.090499997,3.237999916,2.556900024,8.982699394,0.136299998,-0.0385,0.056699999,-3.057799816,9.053899765,-1.54279995,0.094499998,-0.243699998,-0.186999992,-3.057799816,9.053899765,-1.54279995,0.094499998,-0.243699998,-0.186999992
-2.238600016,3.649499893,8.719299316,0.154399991,-0.0458,-0.034499999,3.234400034,2.562899828,8.976699829,0.136299998,-0.090999998,0.0392,-3.061100006,9.049599648,-1.54489994,0.031500001,-0.201700002,-0.291999996,-3.061100006,9.049599648,-1.54489994,0.031500001,-0.201700002,-0.291999996
-2.234799862,3.649499893,8.732699394,0.056399997,0.0242,-0.034499999,3.245100021,2.554499865,8.9897995,0.048799999,0.031500001,-0.0133,-3.046799898,9.043600082,-1.541299939,0.031500001,-0.184199989,-0.256999999,-3.046799898,9.043600082,-1.541299939,0.031500001,-0.184199989,-0.256999999
-2.236700058,3.643699884,8.727000237,0.056399997,0.0942,0.0075,3.255899906,2.556900024,8.967100143,-0.0037,-0.0035,-0.0133,-3.044399977,9.041399956,-1.547500014,0.080499999,0.120299995,-0.186999992,-3.044399977,9.041399956,-1.547500014,0.080499999,0.120299995,-0.186999992
-2.234799862,3.654199839,8.728899956,0.0284,0.066199996,0.035499997,3.246299982,2.558099985,8.9897995,0.136299998,0.066500001,0.0042,-3.04919982,9.050999641,-1.534099936,-0.059499998,0.288300008,-0.172999993,-3.04919982,9.050999641,-1.534099936,-0.059499998,0.288300008,-0.172999993
-2.240499973,3.644699812,8.713600159,0.0144,-0.031799998,-0.020499999,3.241499901,2.556900024,8.976699829,-0.0037,-0.021,-0.0133,-3.050400019,9.059100151,-1.52699995,-0.126000002,0.445799977,-0.169499993,-3.050400019,9.059100151,-1.52699995,-0.126000002,0.445799977,-0.169499993
-2.239599943,3.640899897,8.72219944,0.0284,0.052199997,0.119499996,3.241499901,2.553299904,8.991000175,0.066299997,0.031500001,0.0392,-3.053999901,9.032799721,-1.530599952,-0.160999998,0.428299993,-0.151999995,-3.053999901,9.032799721,-1.530599952,-0.160999998,0.428299993,-0.151999995
-2.250999928,3.639899969,8.725999832,-0.111599997,-0.087799996,-0.034499999,3.249899864,2.553299904,8.9897995,0.048799999,-0.055999998,-0.0133,-3.061100006,9.045999527,-1.528199911,-0.0385,0.288300008,-0.046999998,-3.061100006,9.045999527,-1.528199911,-0.0385,0.288300008,-0.046999998
-2.230999947,3.646600008,8.715499878,-0.0276,-0.031799998,0.119499996,3.251099825,2.555699825,8.982699394,-0.038699999,0.031500001,-0.0133,-3.064499855,9.041399956,-1.539899945,-0.129500002,0.190299988,-0.046999998,-3.064499855,9.041399956,-1.539899945,-0.129500002,0.190299988,-0.046999998
-2.234799862,3.644699812,8.727000237,-0.18159999,-0.0178,0.091499999,3.242699862,2.555699825,8.971899986,0.066299997,-0.055999998,-0.0133,-3.062599897,9.037599564,-1.535099983,-0.1435,0.2183,-0.103,-3.062599897,9.037599564,-1.535099983,-0.1435,0.2183,-0.103
-2.242399931,3.648499966,8.723099709,-0.111599997,0.0242,0.0495,3.24029994,2.546200037,8.977899551,0.0138,-0.090999998,-0.0133,-3.058699846,9.049599648,-1.538900018,-0.0735,0.16579999,-0.064499997,-3.058699846,9.049599648,-1.538900018,-0.0735,0.16579999,-0.064499997
-2.236700058,3.644699812,8.727000237,-0.111599997,-0.0458,-0.020499999,3.248699903,2.552099943,8.984999657,-0.038699999,-0.055999998,0.056699999,-3.069499969,9.045999527,-1.537699938,-0.055999998,-0.026699999,-0.0995,-3.069499969,9.045999527,-1.537699938,-0.055999998,-0.026699999,-0.0995
-2.235699892,3.645599842,8.733699799,-0.097599998,-0.0458,0.105499998,3.243899822,2.555699825,8.9897995,-0.038699999,-0.0385,0.0042,-3.058699846,9.038599968,-1.538900018,-0.213499993,0.092299998,0.064999998,-3.058699846,9.038599968,-1.538900018,-0.213499993,0.092299998,0.064999998
-2.232899904,3.652299881,8.720299721,0.042399999,-0.115800001,0.063500002,3.241499901,2.553299904,8.988599777,-0.038699999,-0.090999998,-0.0133,-3.052999973,9.048099518,-1.527499914,-0.0735,0.148299992,0.037,-3.052999973,9.048099518,-1.527499914,-0.0735,0.148299992,0.037
-2.243900061,3.641799927,8.717399597,-0.059099998,-0.15079999,-0.037999999,3.235599995,2.554499865,8.987400055,-0.073699996,-0.021,-0.0133,-3.058699846,9.041199684,-1.536499977,-0.0035,0.148299992,0.092999995,-3.058699846,9.041199684,-1.536499977,-0.0035,0.148299992,0.092999995
-2.227099895,3.642999887,8.725799561,0.098399997,-0.15079999,-0.055499997,3.239199877,2.547399998,8.982699394,-0.0037,0.066500001,-0.0133,-3.051599979,9.044799805,-1.537699938,-0.213499993,0.095799997,0.075499997,-3.051599979,9.044799805,-1.537699938,-0.213499993,0.095799997,0.075499997
-2.246299982,3.641799927,8.727000237,0.133399993,-0.115800001,-0.090499997,3.249899864,2.550899982,8.979100227,0.101300001,-0.0035,0.056699999,-3.034799814,9.045999527,-1.529399991,-0.195999995,0.148299992,0.092999995,-3.034799814,9.045999527,-1.529399991,-0.195999995,0.148299992,0.092999995
-2.236700058,3.647799969,8.731699944,0.308400005,-0.185800001,-0.090499997,3.239199877,2.560499907,9.002999306,0.066299997,0.118999995,-0.0133,-3.046299934,9.050000191,-1.530299902,-0.213499993,0.288300008,0.050999999,-3.046299934,9.050000191,-1.530299902,-0.213499993,0.288300008,0.050999999
-2.235499859,3.638199806,8.710199356,0.115899995,-0.185800001,-0.003,3.245100021,2.549700022,8.983799934,0.066299997,-0.021,-0.0133,-3.066399813,9.04529953,-1.52549994,-0.157499999,0.078299999,-0.005,-3.066399813,9.04529953,-1.52549994,-0.157499999,0.078299999,-0.005
-2.229500055,3.638199806,8.732899666,0.308400005,-0.220799997,-0.090499997,3.239199877,2.553299904,8.986199379,0.031300001,0.048999999,-0.0133,-3.080199957,9.033999443,-1.518599987,-0.213499993,-0.044199999,0.092999995,-3.080199957,9.033999443,-1.518599987,-0.213499993,-0.044199999,0.092999995
-2.231899977,3.65019989,8.724599838,0.290899992,-0.325800002,-0.020499999,3.243899822,2.560499907,8.986199379,0.0138,-0.021,-0.048299998,-3.071899891,9.044799805,-1.514999986,-0.0035,-0.131699994,0.075499997,-3.071899891,9.044799805,-1.514999986,-0.0035,-0.131699994,0.075499997
-2.235499859,3.651399851,8.724599838,0.238399997,-0.203299999,-0.072999999,3.246299982,2.559299946,8.98029995,0.136299998,-0.0385,-0.0133,-3.055199862,9.042399406,-1.540099978,-0.0735,-0.236699998,0.092999995,-3.055199862,9.042399406,-1.540099978,-0.0735,-0.236699998,0.092999995
-2.233099937,3.646600008,8.727000237,0.395899981,-0.238299996,-0.020499999,3.241499901,2.554499865,8.979100227,-0.021199999,-0.0035,0.021699999,-3.052999973,9.042399406,-1.531299949,-0.059499998,-0.341699988,0.050999999,-3.052999973,9.042399406,-1.531299949,-0.059499998,-0.341699988,0.050999999
-2.233099937,3.647799969,8.720999718,0.238399997,-0.238299996,-0.090499997,3.245100021,2.552099943,8.982699394,-0.021199999,0.048999999,0.056699999,-3.057799816,9.038599968,-1.536099911,-0.031500001,-0.341699988,0.148999989,-3.057799816,9.038599968,-1.536099911,-0.031500001,-0.341699988,0.148999989
-2.235499859,3.654999971,8.738900185,0.273399979,-0.255799979,-0.142999992,3.239199877,2.548499823,8.982699394,-0.0037,-0.055999998,0.056699999,-3.051599979,9.049599648,-1.532999992,-0.0035,-0.341699988,0.180500001,-3.051599979,9.049599648,-1.532999992,-0.0035,-0.341699988,0.180500001
-2.246299982,3.641799927,8.720999718,0.413399994,-0.343299985,-0.195500001,3.245100021,2.567699909,8.983799934,-0.0037,-0.090999998,0.021699999,-3.039599895,9.062699318,-1.528199911,-0.055999998,-0.376699984,0.163000003,-3.039599895,9.062699318,-1.528199911,-0.055999998,-0.376699984,0.163000003
-2.228299856,3.640599966,8.730500221,0.658399999,-0.4833,-0.265499979,3.242699862,2.550899982,8.986199379,-0.0037,-0.1435,0.056699999,-3.043399811,9.048099518,-1.533199906,0.024499999,-0.271699995,0.148999989,-3.043399811,9.048099518,-1.533199906,0.024499999,-0.271699995,0.148999989
-2.241499901,3.654999971,8.717399597,0.745899975,-0.710799992,-0.300500005,3.241499901,2.552099943,8.984999657,0.118799999,-0.090999998,-0.0133,-3.04919982,9.047200203,-1.535099983,-0.045499999,-0.229699999,0.092999995,-3.04919982,9.047200203,-1.535099983,-0.045499999,-0.229699999,0.092999995
-2.231899977,3.653800011,8.720999718,0.570899963,-0.605799973,-0.213,3.242699862,2.547399998,8.981499672,0.066299997,-0.055999998,-0.048299998,-3.044399977,9.053099632,-1.531799912,-0.213499993,-0.271699995,0.057999998,-3.044399977,9.053099632,-1.531799912,-0.213499993,-0.271699995,0.057999998
-2.225899935,3.646600008,8.728199959,0.640899956,-0.58829999,-0.16049999,3.237999916,2.554499865,8.977899551,0.136299998,-0.160999998,0.0392,-3.059899807,9.045999527,-1.519799948,-0.213499993,-0.131699994,0.092999995,-3.059899807,9.045999527,-1.519799948,-0.213499993,-0.131699994,0.092999995
-2.228299856,3.648999929,8.727000237,0.60589999,-0.570800006,-0.230499998,3.246299982,2.552099943,8.981499672,0.153799996,-0.021,0.0042,-3.07069993,9.042399406,-1.523399949,-0.283499986,-0.341699988,0.1105,-3.07069993,9.042399406,-1.523399949,-0.283499986,-0.341699988,0.1105
-2.223599911,3.657299995,8.719799995,0.658399999,-0.605799973,-0.282999992,3.247499943,2.546200037,8.986199379,0.136299998,-0.0385,0.074199997,-3.072099924,9.036699295,-1.514999986,-0.059499998,-0.5097,0.163000003,-3.072099924,9.036699295,-1.514999986,-0.059499998,-0.5097,0.163000003
-2.236700058,3.656099796,8.731699944,0.640899956,-0.4833,-0.335500002,3.245100021,2.552099943,8.994599342,0.276299983,-0.021,0.126699999,-3.045399904,9.044300079,-1.502599955,0.136500001,-0.523699999,0.204999998,-3.045399904,9.044300079,-1.502599955,0.136500001,-0.523699999,0.204999998
-2.234799862,3.651399851,8.727000237,0.672399998,-0.423799992,-0.300500005,3.246299982,2.556900024,8.99339962,0.276299983,0.014,0.109200001,-3.037199974,9.05189991,-1.510299921,0.153999999,-0.551699996,0.145499989,-3.037199974,9.05189991,-1.510299921,0.153999999,-0.551699996,0.145499989
-2.225199938,3.660899878,8.715499878,0.588400006,-0.451799989,-0.300500005,3.242699862,2.560499907,8.988599777,0.31129998,-0.021,0.056699999,-3.053999901,9.043600082,-1.514999986,0.153999999,-0.569199979,0.197999999,-3.053999901,9.043600082,-1.514999986,0.153999999,-0.569199979,0.197999999
-2.227099895,3.654199839,8.730799675,0.728399992,-0.3398,-0.174499989,3.245100021,2.556900024,8.994599342,0.433799982,0.101499997,0.056699999,-3.055199862,9.03880024,-1.517399907,0.346499979,-0.744199991,0.180500001,-3.055199862,9.03880024,-1.517399907,0.346499979,-0.744199991,0.180500001
-2.229099989,3.65809989,8.724999428,0.938399971,-0.479799986,-0.272499979,3.245100021,2.553299904,8.999400139,0.416299999,-0.0035,0.091699995,-3.04919982,9.049099922,-1.527499914,0.178499997,-0.775699973,0.232999995,-3.04919982,9.049099922,-1.527499914,0.178499997,-0.775699973,0.232999995
-2.228100061,3.659999847,8.727000237,0.938399971,-0.493799984,-0.3565,3.243899822,2.560499907,8.994599342,0.468799978,-0.021,0.126699999,-3.05009985,9.042399406,-1.536999941,0.080499999,-0.887699962,0.204999998,-3.05009985,9.042399406,-1.536999941,0.080499999,-0.887699962,0.204999998
-2.231899977,3.657099962,8.727899551,1.050400019,-0.53579998,-0.300500005,3.247499943,2.562899828,8.986199379,0.521299958,0.014,0.126699999,-3.057499886,9.039999962,-1.540099978,0.223999992,-0.691699982,0.1105,-3.057499886,9.039999962,-1.540099978,0.223999992,-0.691699982,0.1105
-2.22329998,3.65899992,8.718400002,0.896399975,-0.53579998,-0.300500005,3.24029994,2.573600054,8.984999657,0.678799987,-0.0735,0.144199997,-3.045599937,9.047200203,-1.529399991,0.171499997,-0.691699982,0.023,-3.045599937,9.047200203,-1.529399991,0.171499997,-0.691699982,0.023
-2.221400023,3.666699886,8.718400002,0.868399978,-0.43779999,-0.244499996,3.245100021,2.556900024,8.982699394,0.69629997,0.048999999,0.249199986,-3.053999901,9.049099922,-1.536999941,-0.0175,-0.761699975,0.078999996,-3.053999901,9.049099922,-1.536999941,-0.0175,-0.761699975,0.078999996
-2.224299908,3.666699886,8.715499878,0.602400005,-0.325800002,-0.230499998,3.245100021,2.555699825,8.982699394,0.661300004,0.048999999,0.196699992,-3.037699938,9.04529953,-1.52459991,-0.031500001,-0.60769999,0.037,-3.037699938,9.04529953,-1.52459991,-0.031500001,-0.60769999,0.037
-2.217599869,3.663800001,8.716400146,0.518400013,-0.255799979,-0.16049999,3.24029994,2.556900024,8.973099709,0.766299963,0.066500001,0.126699999,-3.044399977,9.060299873,-1.523399949,0.066500001,-0.621699989,-0.046999998,-3.044399977,9.060299873,-1.523399949,0.066500001,-0.621699989,-0.046999998
-2.221400023,3.660899878,8.714499474,0.560400009,-0.255799979,-0.104499996,3.242699862,2.561699867,8.971899986,0.731299996,-0.021,0.231699988,-3.046799898,9.039999962,-1.52459991,-0.0035,-0.674199998,0.180500001,-3.046799898,9.039999962,-1.52459991,-0.0035,-0.674199998,0.180500001
-2.228100061,3.65809989,8.708799362,0.476399988,-0.227799997,-0.216499999,3.241499901,2.56889987,8.975500107,0.661300004,0.118999995,0.126699999,-3.047999859,9.036399841,-1.516199946,0.066500001,-0.621699989,0.057999998,-3.047999859,9.036399841,-1.516199946,0.066500001,-0.621699989,0.057999998
-2.234799862,3.668599844,8.717399597,0.560400009,-0.1998,-0.174499989,3.243899822,2.565299988,8.973099709,0.608799994,-0.0035,0.109200001,-3.045399904,9.057700157,-1.518899918,-0.101499997,-0.551699996,0.023,-3.045399904,9.057700157,-1.518899918,-0.101499997,-0.551699996,0.023
-2.226199865,3.669499874,8.724999428,0.546400011,-0.269800007,-0.16049999,3.247499943,2.573600054,8.97069931,0.468799978,0.031500001,0.109200001,-3.052999973,9.050000191,-1.520799994,-0.129500002,-0.425699979,-0.018999999,-3.052999973,9.050000191,-1.520799994,-0.129500002,-0.425699979,-0.018999999
-2.218499899,3.669499874,8.721199989,0.462399989,-0.43779999,-0.146499991,3.246299982,2.562899828,8.973099709,0.521299958,0.118999995,0.109200001,-3.053999901,9.035200119,-1.532999992,-0.160999998,-0.324200004,0.0405,-3.053999901,9.035200119,-1.532999992,-0.160999998,-0.324200004,0.0405
-2.229099989,3.672399998,8.714499474,0.378399998,-0.283800006,-0.216499999,3.245100021,2.567699909,8.98029995,0.556299984,-0.021,0.109200001,-3.061100006,9.044799805,-1.535300016,-0.1435,-0.341699988,0.092999995,-3.061100006,9.044799805,-1.535300016,-0.1435,-0.341699988,0.092999995
-2.220000029,3.665699959,8.701899529,0.325899988,-0.238299996,-0.020499999,3.247499943,2.573600054,8.977899551,0.486299992,-0.0035,0.126699999,-3.039599895,9.047200203,-1.532199979,-0.1435,-0.313699991,0.064999998,-3.039599895,9.047200203,-1.532199979,-0.1435,-0.313699991,0.064999998
-2.217599869,3.660899878,8.705499649,0.238399997,-0.133299991,-0.072999999,3.245100021,2.572399855,8.974299431,0.486299992,-0.090999998,0.126699999,-3.037699938,9.050000191,-1.526499987,-0.213499993,-0.17369999,-0.018999999,-3.037699938,9.050000191,-1.526499987,-0.213499993,-0.17369999,-0.018999999
